wavelength value1 value2
765.2104600 1.6202627 161.0000000
765.2549220 1.6201686 180.0000000
765.2993840 1.6200744 149.0000000
765.3438460 1.6199803 169.0000000
765.3883080 1.6198862 172.0000000
765.4327700 1.6197921 151.0000000
765.4772320 1.6196980 162.0000000
765.5216940 1.6196040 165.0000000
765.5661560 1.6195099 172.0000000
765.6106180 1.6194159 172.0000000
765.6550800 1.6193218 153.0000000
765.6995420 1.6192278 165.0000000
765.7440040 1.6191338 175.0000000
765.7884660 1.6190398 156.0000000
765.8329280 1.6189458 171.0000000
765.8773900 1.6188518 169.0000000
765.9218520 1.6187578 155.0000000
765.9663140 1.6186638 172.0000000
766.0107760 1.6185699 175.0000000
766.0552380 1.6184759 160.0000000
766.0997000 1.6183820 173.0000000
766.1441620 1.6182881 171.0000000
766.1886240 1.6181942 167.0000000
766.2330860 1.6181003 170.0000000
766.2775480 1.6180064 168.0000000
766.3220100 1.6179125 166.0000000
766.3664720 1.6178186 160.0000000
766.4109340 1.6177248 174.0000000
766.4553960 1.6176309 175.0000000
766.4998580 1.6175371 167.0000000
766.5443200 1.6174433 164.0000000
766.5887820 1.6173495 163.0000000
766.6332440 1.6172557 163.0000000
766.6777060 1.6171619 168.0000000
766.7221680 1.6170681 162.0000000
766.7666300 1.6169743 166.0000000
766.8110920 1.6168806 171.0000000
766.8555540 1.6167868 181.0000000
766.9000160 1.6166931 169.0000000
766.9444780 1.6165994 179.0000000
766.9889400 1.6165057 170.0000000
767.0334020 1.6164120 169.0000000
767.0778640 1.6163183 161.0000000
767.1223260 1.6162246 155.0000000
767.1667880 1.6161309 166.0000000
767.2112500 1.6160373 172.0000000
767.2557120 1.6159436 174.0000000
767.3001740 1.6158500 170.0000000
767.3446360 1.6157564 172.0000000
767.3890980 1.6156627 161.0000000
767.4335600 1.6155691 165.0000000
767.4780220 1.6154755 170.0000000
767.5224840 1.6153820 161.0000000
767.5669460 1.6152884 157.0000000
767.6114080 1.6151948 176.0000000
767.6558700 1.6151013 168.0000000
767.7003320 1.6150077 164.0000000
767.7447940 1.6149142 180.0000000
767.7892560 1.6148207 160.0000000
767.8337180 1.6147272 170.0000000
767.8781800 1.6146337 177.0000000
767.9226420 1.6145402 170.0000000
767.9671040 1.6144467 165.0000000
768.0115660 1.6143533 159.0000000
768.0560280 1.6142598 168.0000000
768.1004900 1.6141664 169.0000000
768.1449520 1.6140729 190.0000000
768.1894140 1.6139795 171.0000000
768.2338760 1.6138861 165.0000000
768.2783380 1.6137927 162.0000000
768.3228000 1.6136993 176.0000000
768.3672620 1.6136059 162.0000000
768.4117240 1.6135126 182.0000000
768.4561860 1.6134192 170.0000000
768.5006480 1.6133259 179.0000000
768.5451100 1.6132325 184.0000000
768.5895720 1.6131392 161.0000000
768.6340340 1.6130459 170.0000000
768.6784960 1.6129526 172.0000000
768.7229580 1.6128593 175.0000000
768.7674200 1.6127660 165.0000000
768.8118820 1.6126727 177.0000000
768.8563440 1.6125795 172.0000000
768.9008060 1.6124862 172.0000000
768.9452680 1.6123930 176.0000000
768.9897300 1.6122998 173.0000000
769.0341920 1.6122066 181.0000000
769.0786540 1.6121134 179.0000000
769.1231160 1.6120202 189.0000000
769.1675780 1.6119270 169.0000000
769.2120400 1.6118338 182.0000000
769.2565020 1.6117406 176.0000000
769.3009640 1.6116475 164.0000000
769.3454260 1.6115544 159.0000000
769.3898880 1.6114612 165.0000000
769.4343500 1.6113681 169.0000000
769.4788120 1.6112750 174.0000000
769.5232740 1.6111819 172.0000000
769.5677360 1.6110888 178.0000000
769.6121980 1.6109957 182.0000000
769.6566600 1.6109027 156.0000000
769.7011220 1.6108096 178.0000000
769.7455840 1.6107166 167.0000000
769.7900460 1.6106235 183.0000000
769.8345080 1.6105305 176.0000000
769.8789700 1.6104375 162.0000000
769.9234320 1.6103445 176.0000000
769.9678940 1.6102515 174.0000000
770.0123560 1.6101585 174.0000000
770.0568180 1.6100656 174.0000000
770.1012800 1.6099726 160.0000000
770.1457420 1.6098797 174.0000000
770.1902040 1.6097867 173.0000000
770.2346660 1.6096938 176.0000000
770.2791280 1.6096009 166.0000000
770.3235900 1.6095080 189.0000000
770.3680520 1.6094151 172.0000000
770.4125140 1.6093222 178.0000000
770.4569760 1.6092293 156.0000000
770.5014380 1.6091365 175.0000000
770.5459000 1.6090436 160.0000000
770.5903620 1.6089508 169.0000000
770.6348240 1.6088580 171.0000000
770.6792860 1.6087651 165.0000000
770.7237480 1.6086723 180.0000000
770.7682100 1.6085795 172.0000000
770.8126720 1.6084868 174.0000000
770.8571340 1.6083940 182.0000000
770.9015960 1.6083012 177.0000000
770.9460580 1.6082085 175.0000000
770.9905200 1.6081157 177.0000000
771.0349820 1.6080230 179.0000000
771.0794440 1.6079303 174.0000000
771.1239060 1.6078375 167.0000000
771.1683680 1.6077448 185.0000000
771.2128300 1.6076522 173.0000000
771.2572920 1.6075595 183.0000000
771.3017540 1.6074668 173.0000000
771.3462160 1.6073742 176.0000000
771.3906780 1.6072815 168.0000000
771.4351400 1.6071889 159.0000000
771.4796020 1.6070962 168.0000000
771.5240640 1.6070036 190.0000000
771.5685260 1.6069110 189.0000000
771.6129880 1.6068184 177.0000000
771.6574500 1.6067258 180.0000000
771.7019120 1.6066333 170.0000000
771.7463740 1.6065407 173.0000000
771.7908360 1.6064482 172.0000000
771.8352980 1.6063556 172.0000000
771.8797600 1.6062631 174.0000000
771.9242220 1.6061706 180.0000000
771.9686840 1.6060781 156.0000000
772.0131460 1.6059856 168.0000000
772.0576080 1.6058931 170.0000000
772.1020700 1.6058006 179.0000000
772.1465320 1.6057081 174.0000000
772.1909940 1.6056157 180.0000000
772.2354560 1.6055232 178.0000000
772.2799180 1.6054308 184.0000000
772.3243800 1.6053384 186.0000000
772.3688420 1.6052460 171.0000000
772.4133040 1.6051536 164.0000000
772.4577660 1.6050612 185.0000000
772.5022280 1.6049688 178.0000000
772.5466900 1.6048764 166.0000000
772.5911520 1.6047841 165.0000000
772.6356140 1.6046917 165.0000000
772.6800760 1.6045994 183.0000000
772.7245380 1.6045071 167.0000000
772.7690000 1.6044147 170.0000000
772.8134620 1.6043224 173.0000000
772.8579240 1.6042301 175.0000000
772.9023860 1.6041378 172.0000000
772.9468480 1.6040456 169.0000000
772.9913100 1.6039533 174.0000000
773.0357720 1.6038611 187.0000000
773.0802340 1.6037688 168.0000000
773.1246960 1.6036766 166.0000000
773.1691580 1.6035844 177.0000000
773.2136200 1.6034922 172.0000000
773.2580820 1.6033999 174.0000000
773.3025440 1.6033078 173.0000000
773.3470060 1.6032156 174.0000000
773.3914680 1.6031234 176.0000000
773.4359300 1.6030313 172.0000000
773.4803920 1.6029391 168.0000000
773.5248540 1.6028470 183.0000000
773.5693160 1.6027548 180.0000000
773.6137780 1.6026627 166.0000000
773.6582400 1.6025706 177.0000000
773.7027020 1.6024785 191.0000000
773.7471640 1.6023864 183.0000000
773.7916260 1.6022944 159.0000000
773.8360880 1.6022023 161.0000000
773.8805500 1.6021103 170.0000000
773.9250120 1.6020182 174.0000000
773.9694740 1.6019262 196.0000000
774.0139360 1.6018342 157.0000000
774.0583980 1.6017422 167.0000000
774.1028600 1.6016502 171.0000000
774.1473220 1.6015582 176.0000000
774.1917840 1.6014662 172.0000000
774.2362460 1.6013742 157.0000000
774.2807080 1.6012823 174.0000000
774.3251700 1.6011903 180.0000000
774.3696320 1.6010984 157.0000000
774.4140940 1.6010065 182.0000000
774.4585560 1.6009145 178.0000000
774.5030180 1.6008226 176.0000000
774.5474800 1.6007308 177.0000000
774.5919420 1.6006389 171.0000000
774.6364040 1.6005470 177.0000000
774.6808660 1.6004551 174.0000000
774.7253280 1.6003633 188.0000000
774.7697900 1.6002714 178.0000000
774.8142520 1.6001796 192.0000000
774.8587140 1.6000878 195.0000000
774.9031760 1.5999960 166.0000000
774.9476380 1.5999042 175.0000000
774.9921000 1.5998124 172.0000000
775.0365620 1.5997206 189.0000000
775.0810240 1.5996289 180.0000000
775.1254860 1.5995371 176.0000000
775.1699480 1.5994454 178.0000000
775.2144100 1.5993536 186.0000000
775.2588720 1.5992619 192.0000000
775.3033340 1.5991702 178.0000000
775.3477960 1.5990785 179.0000000
775.3922580 1.5989868 176.0000000
775.4367200 1.5988951 174.0000000
775.4811820 1.5988034 196.0000000
775.5256440 1.5987118 171.0000000
775.5701060 1.5986201 188.0000000
775.6145680 1.5985285 179.0000000
775.6590300 1.5984368 175.0000000
775.7034920 1.5983452 186.0000000
775.7479540 1.5982536 176.0000000
775.7924160 1.5981620 171.0000000
775.8368780 1.5980704 174.0000000
775.8813400 1.5979788 168.0000000
775.9258020 1.5978873 187.0000000
775.9702640 1.5977957 185.0000000
776.0147260 1.5977042 186.0000000
776.0591880 1.5976126 188.0000000
776.1036500 1.5975211 167.0000000
776.1481120 1.5974296 192.0000000
776.1925740 1.5973381 174.0000000
776.2370360 1.5972466 185.0000000
776.2814980 1.5971551 178.0000000
776.3259600 1.5970636 177.0000000
776.3704220 1.5969722 187.0000000
776.4148840 1.5968807 170.0000000
776.4593460 1.5967893 189.0000000
776.5038080 1.5966979 190.0000000
776.5482700 1.5966064 174.0000000
776.5927320 1.5965150 173.0000000
776.6371940 1.5964236 193.0000000
776.6816560 1.5963322 180.0000000
776.7261180 1.5962409 182.0000000
776.7705800 1.5961495 178.0000000
776.8150420 1.5960581 180.0000000
776.8595040 1.5959668 174.0000000
776.9039660 1.5958755 189.0000000
776.9484280 1.5957841 185.0000000
776.9928900 1.5956928 185.0000000
777.0373520 1.5956015 187.0000000
777.0818140 1.5955102 181.0000000
777.1262760 1.5954189 177.0000000
777.1707380 1.5953277 192.0000000
777.2152000 1.5952364 186.0000000
777.2596620 1.5951451 191.0000000
777.3041240 1.5950539 178.0000000
777.3485860 1.5949627 180.0000000
777.3930480 1.5948714 190.0000000
777.4375100 1.5947802 181.0000000
777.4819720 1.5946890 185.0000000
777.5264340 1.5945978 180.0000000
777.5708960 1.5945067 193.0000000
777.6153580 1.5944155 177.0000000
777.6598200 1.5943243 179.0000000
777.7042820 1.5942332 187.0000000
777.7487440 1.5941420 183.0000000
777.7932060 1.5940509 187.0000000
777.8376680 1.5939598 176.0000000
777.8821300 1.5938687 191.0000000
777.9265920 1.5937776 184.0000000
777.9710540 1.5936865 176.0000000
778.0155160 1.5935954 176.0000000
778.0599780 1.5935044 193.0000000
778.1044400 1.5934133 197.0000000
778.1489020 1.5933223 186.0000000
778.1933640 1.5932312 176.0000000
778.2378260 1.5931402 180.0000000
778.2822880 1.5930492 177.0000000
778.3267500 1.5929582 188.0000000
778.3712120 1.5928672 186.0000000
778.4156740 1.5927762 183.0000000
778.4601360 1.5926852 192.0000000
778.5045980 1.5925943 214.0000000
778.5490600 1.5925033 178.0000000
778.5935220 1.5924124 189.0000000
778.6379840 1.5923215 188.0000000
778.6824460 1.5922305 192.0000000
778.7269080 1.5921396 190.0000000
778.7713700 1.5920487 186.0000000
778.8158320 1.5919578 191.0000000
778.8602940 1.5918670 188.0000000
778.9047560 1.5917761 196.0000000
778.9492180 1.5916852 188.0000000
778.9936800 1.5915944 191.0000000
779.0381420 1.5915036 188.0000000
779.0826040 1.5914127 173.0000000
779.1270660 1.5913219 189.0000000
779.1715280 1.5912311 194.0000000
779.2159900 1.5911403 193.0000000
779.2604520 1.5910495 180.0000000
779.3049140 1.5909587 192.0000000
779.3493760 1.5908680 193.0000000
779.3938380 1.5907772 195.0000000
779.4383000 1.5906865 189.0000000
779.4827620 1.5905958 185.0000000
779.5272240 1.5905050 191.0000000
779.5716860 1.5904143 181.0000000
779.6161480 1.5903236 190.0000000
779.6606100 1.5902329 186.0000000
779.7050720 1.5901422 186.0000000
779.7495340 1.5900516 195.0000000
779.7939960 1.5899609 192.0000000
779.8384580 1.5898703 206.0000000
779.8829200 1.5897796 204.0000000
779.9273820 1.5896890 188.0000000
779.9718440 1.5895984 186.0000000
780.0163060 1.5895078 193.0000000
780.0607680 1.5894172 189.0000000
780.1052300 1.5893266 197.0000000
780.1496920 1.5892360 192.0000000
780.1941540 1.5891454 186.0000000
780.2386160 1.5890549 199.0000000
780.2830780 1.5889643 189.0000000
780.3275400 1.5888738 177.0000000
780.3720020 1.5887833 186.0000000
780.4164640 1.5886927 187.0000000
780.4609260 1.5886022 193.0000000
780.5053880 1.5885117 197.0000000
780.5498500 1.5884213 185.0000000
780.5943120 1.5883308 203.0000000
780.6387740 1.5882403 189.0000000
780.6832360 1.5881499 195.0000000
780.7276980 1.5880594 212.0000000
780.7721600 1.5879690 179.0000000
780.8166220 1.5878786 198.0000000
780.8610840 1.5877881 183.0000000
780.9055460 1.5876977 193.0000000
780.9500080 1.5876073 194.0000000
780.9944700 1.5875170 187.0000000
781.0389320 1.5874266 197.0000000
781.0833940 1.5873362 190.0000000
781.1278560 1.5872459 192.0000000
781.1723180 1.5871555 190.0000000
781.2167800 1.5870652 194.0000000
781.2612420 1.5869749 195.0000000
781.3057040 1.5868846 210.0000000
781.3501660 1.5867943 208.0000000
781.3946280 1.5867040 201.0000000
781.4390900 1.5866137 192.0000000
781.4835520 1.5865234 194.0000000
781.5280140 1.5864332 189.0000000
781.5724760 1.5863429 196.0000000
781.6169380 1.5862527 192.0000000
781.6614000 1.5861625 191.0000000
781.7058620 1.5860722 198.0000000
781.7503240 1.5859820 199.0000000
781.7947860 1.5858918 190.0000000
781.8392480 1.5858017 199.0000000
781.8837100 1.5857115 211.0000000
781.9281720 1.5856213 204.0000000
781.9726340 1.5855312 202.0000000
782.0170960 1.5854410 206.0000000
782.0615580 1.5853509 189.0000000
782.1060200 1.5852607 193.0000000
782.1504820 1.5851706 200.0000000
782.1949440 1.5850805 203.0000000
782.2394060 1.5849904 189.0000000
782.2838680 1.5849003 221.0000000
782.3283300 1.5848103 200.0000000
782.3727920 1.5847202 192.0000000
782.4172540 1.5846301 213.0000000
782.4617160 1.5845401 222.0000000
782.5061780 1.5844501 205.0000000
782.5506400 1.5843600 196.0000000
782.5951020 1.5842700 190.0000000
782.6395640 1.5841800 187.0000000
782.6840260 1.5840900 199.0000000
782.7284880 1.5840001 190.0000000
782.7729500 1.5839101 212.0000000
782.8174120 1.5838201 217.0000000
782.8618740 1.5837302 211.0000000
782.9063360 1.5836402 211.0000000
782.9507980 1.5835503 203.0000000
782.9952600 1.5834604 191.0000000
783.0397220 1.5833705 210.0000000
783.0841840 1.5832806 193.0000000
783.1286460 1.5831907 210.0000000
783.1731080 1.5831008 196.0000000
783.2175700 1.5830109 186.0000000
783.2620320 1.5829211 209.0000000
783.3064940 1.5828312 219.0000000
783.3509560 1.5827414 201.0000000
783.3954180 1.5826515 214.0000000
783.4398800 1.5825617 188.0000000
783.4843420 1.5824719 202.0000000
783.5288040 1.5823821 211.0000000
783.5732660 1.5822923 216.0000000
783.6177280 1.5822026 218.0000000
783.6621900 1.5821128 206.0000000
783.7066520 1.5820230 194.0000000
783.7511140 1.5819333 205.0000000
783.7955760 1.5818435 205.0000000
783.8400380 1.5817538 214.0000000
783.8845000 1.5816641 199.0000000
783.9289620 1.5815744 207.0000000
783.9734240 1.5814847 213.0000000
784.0178860 1.5813950 196.0000000
784.0623480 1.5813053 200.0000000
784.1068100 1.5812157 204.0000000
784.1512720 1.5811260 225.0000000
784.1957340 1.5810364 213.0000000
784.2401960 1.5809467 221.0000000
784.2846580 1.5808571 218.0000000
784.3291200 1.5807675 206.0000000
784.3735820 1.5806779 217.0000000
784.4180440 1.5805883 218.0000000
784.4625060 1.5804987 210.0000000
784.5069680 1.5804091 213.0000000
784.5514300 1.5803196 198.0000000
784.5958920 1.5802300 196.0000000
784.6403540 1.5801405 216.0000000
784.6848160 1.5800509 197.0000000
784.7292780 1.5799614 226.0000000
784.7737400 1.5798719 212.0000000
784.8182020 1.5797824 207.0000000
784.8626640 1.5796929 192.0000000
784.9071260 1.5796034 211.0000000
784.9515880 1.5795139 224.0000000
784.9960500 1.5794245 221.0000000
785.0405120 1.5793350 220.0000000
785.0849740 1.5792456 206.0000000
785.1294360 1.5791561 218.0000000
785.1738980 1.5790667 216.0000000
785.2183600 1.5789773 221.0000000
785.2628220 1.5788879 206.0000000
785.3072840 1.5787985 219.0000000
785.3517460 1.5787091 230.0000000
785.3962080 1.5786198 237.0000000
785.4406700 1.5785304 232.0000000
785.4851320 1.5784410 243.0000000
785.5295940 1.5783517 213.0000000
785.5740560 1.5782624 217.0000000
785.6185180 1.5781730 233.0000000
785.6629800 1.5780837 231.0000000
785.7074420 1.5779944 246.0000000
785.7519040 1.5779051 237.0000000
785.7963660 1.5778159 235.0000000
785.8408280 1.5777266 232.0000000
785.8852900 1.5776373 220.0000000
785.9297520 1.5775481 250.0000000
785.9742140 1.5774588 227.0000000
786.0186760 1.5773696 233.0000000
786.0631380 1.5772804 243.0000000
786.1076000 1.5771912 222.0000000
786.1520620 1.5771020 230.0000000
786.1965240 1.5770128 242.0000000
786.2409860 1.5769236 235.0000000
786.2854480 1.5768344 231.0000000
786.3299100 1.5767453 230.0000000
786.3743720 1.5766561 239.0000000
786.4188340 1.5765670 254.0000000
786.4632960 1.5764779 232.0000000
786.5077580 1.5763887 226.0000000
786.5522200 1.5762996 231.0000000
786.5966820 1.5762105 239.0000000
786.6411440 1.5761214 242.0000000
786.6856060 1.5760324 234.0000000
786.7300680 1.5759433 234.0000000
786.7745300 1.5758542 244.0000000
786.8189920 1.5757652 244.0000000
786.8634540 1.5756761 244.0000000
786.9079160 1.5755871 243.0000000
786.9523780 1.5754981 238.0000000
786.9968400 1.5754091 247.0000000
787.0413020 1.5753201 208.0000000
787.0857640 1.5752311 255.0000000
787.1302260 1.5751421 251.0000000
787.1746880 1.5750531 264.0000000
787.2191500 1.5749642 262.0000000
787.2636120 1.5748752 252.0000000
787.3080740 1.5747863 248.0000000
787.3525360 1.5746974 253.0000000
787.3969980 1.5746085 258.0000000
787.4414600 1.5745195 261.0000000
787.4859220 1.5744306 255.0000000
787.5303840 1.5743418 280.0000000
787.5748460 1.5742529 253.0000000
787.6193080 1.5741640 260.0000000
787.6637700 1.5740752 264.0000000
787.7082320 1.5739863 261.0000000
787.7526940 1.5738975 263.0000000
787.7971560 1.5738086 251.0000000
787.8416180 1.5737198 258.0000000
787.8860800 1.5736310 257.0000000
787.9305420 1.5735422 268.0000000
787.9750040 1.5734534 265.0000000
788.0194660 1.5733646 251.0000000
788.0639280 1.5732759 255.0000000
788.1083900 1.5731871 275.0000000
788.1528520 1.5730984 273.0000000
788.1973140 1.5730096 265.0000000
788.2417760 1.5729209 279.0000000
788.2862380 1.5728322 278.0000000
788.3307000 1.5727435 283.0000000
788.3751620 1.5726548 265.0000000
788.4196240 1.5725661 290.0000000
788.4640860 1.5724774 296.0000000
788.5085480 1.5723887 270.0000000
788.5530100 1.5723001 271.0000000
788.5974720 1.5722114 301.0000000
788.6419340 1.5721228 280.0000000
788.6863960 1.5720342 284.0000000
788.7308580 1.5719456 290.0000000
788.7753200 1.5718570 263.0000000
788.8197820 1.5717684 297.0000000
788.8642440 1.5716798 309.0000000
788.9087060 1.5715912 296.0000000
788.9531680 1.5715026 322.0000000
788.9976300 1.5714141 292.0000000
789.0420920 1.5713255 314.0000000
789.0865540 1.5712370 299.0000000
789.1310160 1.5711484 308.0000000
789.1754780 1.5710599 307.0000000
789.2199400 1.5709714 310.0000000
789.2644020 1.5708829 337.0000000
789.3088640 1.5707944 312.0000000
789.3533260 1.5707060 323.0000000
789.3977880 1.5706175 309.0000000
789.4422500 1.5705290 324.0000000
789.4867120 1.5704406 363.0000000
789.5311740 1.5703521 330.0000000
789.5756360 1.5702637 334.0000000
789.6200980 1.5701753 333.0000000
789.6645600 1.5700869 360.0000000
789.7090220 1.5699985 326.0000000
789.7534840 1.5699101 368.0000000
789.7979460 1.5698217 317.0000000
789.8424080 1.5697334 363.0000000
789.8868700 1.5696450 355.0000000
789.9313320 1.5695566 394.0000000
789.9757940 1.5694683 379.0000000
790.0202560 1.5693800 383.0000000
790.0647180 1.5692917 376.0000000
790.1091800 1.5692033 403.0000000
790.1536420 1.5691150 373.0000000
790.1981040 1.5690268 390.0000000
790.2425660 1.5689385 426.0000000
790.2870280 1.5688502 425.0000000
790.3314900 1.5687620 435.0000000
790.3759520 1.5686737 433.0000000
790.4204140 1.5685855 386.0000000
790.4648760 1.5684972 429.0000000
790.5093380 1.5684090 431.0000000
790.5538000 1.5683208 448.0000000
790.5982620 1.5682326 418.0000000
790.6427240 1.5681444 447.0000000
790.6871860 1.5680562 438.0000000
790.7316480 1.5679681 459.0000000
790.7761100 1.5678799 438.0000000
790.8205720 1.5677918 444.0000000
790.8650340 1.5677036 462.0000000
790.9094960 1.5676155 449.0000000
790.9539580 1.5675274 456.0000000
790.9984200 1.5674392 425.0000000
791.0428820 1.5673511 470.0000000
791.0873440 1.5672631 455.0000000
791.1318060 1.5671750 483.0000000
791.1762680 1.5670869 464.0000000
791.2207300 1.5669988 499.0000000
791.2651920 1.5669108 471.0000000
791.3096540 1.5668228 473.0000000
791.3541160 1.5667347 495.0000000
791.3985780 1.5666467 531.0000000
791.4430400 1.5665587 470.0000000
791.4875020 1.5664707 526.0000000
791.5319640 1.5663827 528.0000000
791.5764260 1.5662947 497.0000000
791.6208880 1.5662067 522.0000000
791.6653500 1.5661188 510.0000000
791.7098120 1.5660308 535.0000000
791.7542740 1.5659429 529.0000000
791.7987360 1.5658549 540.0000000
791.8431980 1.5657670 554.0000000
791.8876600 1.5656791 538.0000000
791.9321220 1.5655912 572.0000000
791.9765840 1.5655033 561.0000000
792.0210460 1.5654154 579.0000000
792.0655080 1.5653276 568.0000000
792.1099700 1.5652397 577.0000000
792.1544320 1.5651518 590.0000000
792.1988940 1.5650640 566.0000000
792.2433560 1.5649762 622.0000000
792.2878180 1.5648883 586.0000000
792.3322800 1.5648005 584.0000000
792.3767420 1.5647127 636.0000000
792.4212040 1.5646249 638.0000000
792.4656660 1.5645371 642.0000000
792.5101280 1.5644494 626.0000000
792.5545900 1.5643616 640.0000000
792.5990520 1.5642738 670.0000000
792.6435140 1.5641861 648.0000000
792.6879760 1.5640984 692.0000000
792.7324380 1.5640106 691.0000000
792.7769000 1.5639229 717.0000000
792.8213620 1.5638352 776.0000000
792.8658240 1.5637475 763.0000000
792.9102860 1.5636598 778.0000000
792.9547480 1.5635722 739.0000000
792.9992100 1.5634845 780.0000000
793.0436720 1.5633968 779.0000000
793.0881340 1.5633092 811.0000000
793.1325960 1.5632216 863.0000000
793.1770580 1.5631339 806.0000000
793.2215200 1.5630463 823.0000000
793.2659820 1.5629587 857.0000000
793.3104440 1.5628711 817.0000000
793.3549060 1.5627835 888.0000000
793.3993680 1.5626959 884.0000000
793.4438300 1.5626084 917.0000000
793.4882920 1.5625208 933.0000000
793.5327540 1.5624333 896.0000000
793.5772160 1.5623457 950.0000000
793.6216780 1.5622582 956.0000000
793.6661400 1.5621707 969.0000000
793.7106020 1.5620832 1000.0000000
793.7550640 1.5619957 1005.0000000
793.7995260 1.5619082 1023.0000000
793.8439880 1.5618207 1064.0000000
793.8884500 1.5617332 1129.0000000
793.9329120 1.5616458 1093.0000000
793.9773740 1.5615583 1115.0000000
794.0218360 1.5614709 1103.0000000
794.0662980 1.5613834 1157.0000000
794.1107600 1.5612960 1152.0000000
794.1552220 1.5612086 1163.0000000
794.1996840 1.5611212 1176.0000000
794.2441460 1.5610338 1232.0000000
794.2886080 1.5609464 1283.0000000
794.3330700 1.5608591 1282.0000000
794.3775320 1.5607717 1300.0000000
794.4219940 1.5606843 1335.0000000
794.4664560 1.5605970 1241.0000000
794.5109180 1.5605097 1440.0000000
794.5553800 1.5604223 1392.0000000
794.5998420 1.5603350 1470.0000000
794.6443040 1.5602477 1466.0000000
794.6887660 1.5601604 1511.0000000
794.7332280 1.5600731 1529.0000000
794.7776900 1.5599859 1524.0000000
794.8221520 1.5598986 1574.0000000
794.8666140 1.5598114 1686.0000000
794.9110760 1.5597241 1645.0000000
794.9555380 1.5596369 1634.0000000
795.0000000 1.5595496 1770.0000000
795.0444620 1.5594624 1758.0000000
795.0889240 1.5593752 1723.0000000
795.1333860 1.5592880 1804.0000000
795.1778480 1.5592008 1906.0000000
795.2223100 1.5591137 1921.0000000
795.2667720 1.5590265 1913.0000000
795.3112340 1.5589393 1996.0000000
795.3556960 1.5588522 1998.0000000
795.4001580 1.5587651 2053.0000000
795.4446200 1.5586779 2191.0000000
795.4890820 1.5585908 2154.0000000
795.5335440 1.5585037 2168.0000000
795.5780060 1.5584166 2294.0000000
795.6224680 1.5583295 2271.0000000
795.6669300 1.5582424 2326.0000000
795.7113920 1.5581554 2483.0000000
795.7558540 1.5580683 2476.0000000
795.8003160 1.5579812 2567.0000000
795.8447780 1.5578942 2584.0000000
795.8892400 1.5578072 2684.0000000
795.9337020 1.5577202 2824.0000000
795.9781640 1.5576331 2835.0000000
796.0226260 1.5575461 2835.0000000
796.0670880 1.5574591 3003.0000000
796.1115500 1.5573722 3067.0000000
796.1560120 1.5572852 3313.0000000
796.2004740 1.5571982 3248.0000000
796.2449360 1.5571113 3490.0000000
796.2893980 1.5570243 3630.0000000
796.3338600 1.5569374 3770.0000000
796.3783220 1.5568505 3876.0000000
796.4227840 1.5567636 4066.0000000
796.4672460 1.5566767 4256.0000000
796.5117080 1.5565898 4300.0000000
796.5561700 1.5565029 4561.0000000
796.6006320 1.5564160 4748.0000000
796.6450940 1.5563291 4944.0000000
796.6895560 1.5562423 5386.0000000
796.7340180 1.5561554 5560.0000000
796.7784800 1.5560686 5978.0000000
796.8229420 1.5559818 6296.0000000
796.8674040 1.5558950 6640.0000000
796.9118660 1.5558081 7026.0000000
796.9563280 1.5557213 7513.0000000
797.0007900 1.5556346 7839.0000000
797.0452520 1.5555478 8400.0000000
797.0897140 1.5554610 9363.0000000
797.1341760 1.5553742 10286.0000000
797.1786380 1.5552875 10997.0000000
797.2231000 1.5552008 12078.0000000
797.2675620 1.5551140 13513.0000000
797.3120240 1.5550273 14773.0000000
797.3564860 1.5549406 16404.0000000
797.4009480 1.5548539 18002.0000000
797.4454100 1.5547672 20149.0000000
797.4898720 1.5546805 22540.0000000
797.5343340 1.5545938 25210.0000000
797.5787960 1.5545072 27827.0000000
797.6232580 1.5544205 30718.0000000
797.6677200 1.5543339 34270.0000000
797.7121820 1.5542473 37895.0000000
797.7566440 1.5541606 41421.0000000
797.8011060 1.5540740 44871.0000000
797.8455680 1.5539874 48615.0000000
797.8900300 1.5539008 52033.0000000
797.9344920 1.5538142 54820.0000000
797.9789540 1.5537277 58247.0000000
798.0234160 1.5536411 60984.0000000
798.0678780 1.5535545 62530.0000000
798.1123400 1.5534680 62965.0000000
798.1568020 1.5533814 62444.0000000
798.2012640 1.5532949 61656.0000000
798.2457260 1.5532084 59868.0000000
798.2901880 1.5531219 57223.0000000
798.3346500 1.5530354 54745.0000000
798.3791120 1.5529489 51709.0000000
798.4235740 1.5528624 48946.0000000
798.4680360 1.5527760 46764.0000000
798.5124980 1.5526895 44096.0000000
798.5569600 1.5526030 41556.0000000
798.6014220 1.5525166 38798.0000000
798.6458840 1.5524302 37166.0000000
798.6903460 1.5523438 35215.0000000
798.7348080 1.5522573 32711.0000000
798.7792700 1.5521709 30839.0000000
798.8237320 1.5520845 29415.0000000
798.8681940 1.5519982 28136.0000000
798.9126560 1.5519118 26668.0000000
798.9571180 1.5518254 25265.0000000
799.0015800 1.5517391 24703.0000000
799.0460420 1.5516527 23821.0000000
799.0905040 1.5515664 23287.0000000
799.1349660 1.5514801 22524.0000000
799.1794280 1.5513938 21881.0000000
799.2238900 1.5513074 21375.0000000
799.2683520 1.5512211 20951.0000000
799.3128140 1.5511349 20108.0000000
799.3572760 1.5510486 19874.0000000
799.4017380 1.5509623 19069.0000000
799.4462000 1.5508761 18771.0000000
799.4906620 1.5507898 17989.0000000
799.5351240 1.5507036 17700.0000000
799.5795860 1.5506173 17701.0000000
799.6240480 1.5505311 17356.0000000
799.6685100 1.5504449 17177.0000000
799.7129720 1.5503587 16768.0000000
799.7574340 1.5502725 16444.0000000
799.8018960 1.5501863 16364.0000000
799.8463580 1.5501002 16318.0000000
799.8908200 1.5500140 15780.0000000
799.9352820 1.5499278 15937.0000000
799.9797440 1.5498417 15695.0000000
800.0242060 1.5497556 15390.0000000
800.0686680 1.5496694 15019.0000000
800.1131300 1.5495833 14974.0000000
800.1575920 1.5494972 14997.0000000
800.2020540 1.5494111 14777.0000000
800.2465160 1.5493250 14675.0000000
800.2909780 1.5492390 14631.0000000
800.3354400 1.5491529 14378.0000000
800.3799020 1.5490668 14270.0000000
800.4243640 1.5489808 14230.0000000
800.4688260 1.5488948 14214.0000000
800.5132880 1.5488087 14149.0000000
800.5577500 1.5487227 14033.0000000
800.6022120 1.5486367 14105.0000000
800.6466740 1.5485507 13822.0000000
800.6911360 1.5484647 13816.0000000
800.7355980 1.5483787 13920.0000000
800.7800600 1.5482928 13720.0000000
800.8245220 1.5482068 13864.0000000
800.8689840 1.5481208 13691.0000000
800.9134460 1.5480349 13937.0000000
800.9579080 1.5479490 13850.0000000
801.0023700 1.5478630 13795.0000000
801.0468320 1.5477771 13835.0000000
801.0912940 1.5476912 13815.0000000
801.1357560 1.5476053 13991.0000000
801.1802180 1.5475194 14197.0000000
801.2246800 1.5474336 14033.0000000
801.2691420 1.5473477 14192.0000000
801.3136040 1.5472619 14048.0000000
801.3580660 1.5471760 14300.0000000
801.4025280 1.5470902 14277.0000000
801.4469900 1.5470043 14186.0000000
801.4914520 1.5469185 14411.0000000
801.5359140 1.5468327 14168.0000000
801.5803760 1.5467469 14805.0000000
801.6248380 1.5466611 14437.0000000
801.6693000 1.5465753 14732.0000000
801.7137620 1.5464896 14742.0000000
801.7582240 1.5464038 14911.0000000
801.8026860 1.5463181 14730.0000000
801.8471480 1.5462323 14997.0000000
801.8916100 1.5461466 14911.0000000
801.9360720 1.5460609 15025.0000000
801.9805340 1.5459751 15197.0000000
802.0249960 1.5458894 15107.0000000
802.0694580 1.5458037 15139.0000000
802.1139200 1.5457181 15383.0000000
802.1583820 1.5456324 15246.0000000
802.2028440 1.5455467 15674.0000000
802.2473060 1.5454611 15624.0000000
802.2917680 1.5453754 15490.0000000
802.3362300 1.5452898 15760.0000000
802.3806920 1.5452041 15962.0000000
802.4251540 1.5451185 15903.0000000
802.4696160 1.5450329 15958.0000000
802.5140780 1.5449473 16058.0000000
802.5585400 1.5448617 16242.0000000
802.6030020 1.5447761 16340.0000000
802.6474640 1.5446906 16370.0000000
802.6919260 1.5446050 16325.0000000
802.7363880 1.5445195 16367.0000000
802.7808500 1.5444339 16623.0000000
802.8253120 1.5443484 16774.0000000
802.8697740 1.5442629 16782.0000000
802.9142360 1.5441773 17085.0000000
802.9586980 1.5440918 16945.0000000
803.0031600 1.5440063 17062.0000000
803.0476220 1.5439209 16986.0000000
803.0920840 1.5438354 17176.0000000
803.1365460 1.5437499 17336.0000000
803.1810080 1.5436645 17471.0000000
803.2254700 1.5435790 17500.0000000
803.2699320 1.5434936 17629.0000000
803.3143940 1.5434081 17525.0000000
803.3588560 1.5433227 17629.0000000
803.4033180 1.5432373 17843.0000000
803.4477800 1.5431519 18064.0000000
803.4922420 1.5430665 18191.0000000
803.5367040 1.5429811 18135.0000000
803.5811660 1.5428958 18127.0000000
803.6256280 1.5428104 18211.0000000
803.6700900 1.5427250 18345.0000000
803.7145520 1.5426397 18138.0000000
803.7590140 1.5425544 18267.0000000
803.8034760 1.5424690 18191.0000000
803.8479380 1.5423837 18730.0000000
803.8924000 1.5422984 18368.0000000
803.9368620 1.5422131 18689.0000000
803.9813240 1.5421278 18909.0000000
804.0257860 1.5420425 18666.0000000
804.0702480 1.5419573 18976.0000000
804.1147100 1.5418720 19050.0000000
804.1591720 1.5417868 19389.0000000
804.2036340 1.5417015 19293.0000000
804.2480960 1.5416163 19272.0000000
804.2925580 1.5415311 19274.0000000
804.3370200 1.5414459 19407.0000000
804.3814820 1.5413607 19683.0000000
804.4259440 1.5412755 19404.0000000
804.4704060 1.5411903 19613.0000000
804.5148680 1.5411051 19507.0000000
804.5593300 1.5410199 19398.0000000
804.6037920 1.5409348 19948.0000000
804.6482540 1.5408496 19637.0000000
804.6927160 1.5407645 19981.0000000
804.7371780 1.5406794 20107.0000000
804.7816400 1.5405943 19986.0000000
804.8261020 1.5405091 19793.0000000
804.8705640 1.5404240 20041.0000000
804.9150260 1.5403390 20010.0000000
804.9594880 1.5402539 20255.0000000
805.0039500 1.5401688 20117.0000000
805.0484120 1.5400837 19953.0000000
805.0928740 1.5399987 20498.0000000
805.1373360 1.5399136 20148.0000000
805.1817980 1.5398286 20541.0000000
805.2262600 1.5397436 20463.0000000
805.2707220 1.5396586 20677.0000000
805.3151840 1.5395736 20590.0000000
805.3596460 1.5394886 20631.0000000
805.4041080 1.5394036 20556.0000000
805.4485700 1.5393186 20687.0000000
805.4930320 1.5392336 20807.0000000
805.5374940 1.5391487 20595.0000000
805.5819560 1.5390637 20874.0000000
805.6264180 1.5389788 20711.0000000
805.6708800 1.5388939 21035.0000000
805.7153420 1.5388089 20890.0000000
805.7598040 1.5387240 21052.0000000
805.8042660 1.5386391 20809.0000000
805.8487280 1.5385542 20999.0000000
805.8931900 1.5384693 21288.0000000
805.9376520 1.5383845 21103.0000000
805.9821140 1.5382996 21046.0000000
806.0265760 1.5382148 21264.0000000
806.0710380 1.5381299 21269.0000000
806.1155000 1.5380451 21350.0000000
806.1599620 1.5379602 21311.0000000
806.2044240 1.5378754 21304.0000000
806.2488860 1.5377906 21390.0000000
806.2933480 1.5377058 21533.0000000
806.3378100 1.5376210 21690.0000000
806.3822720 1.5375362 21503.0000000
806.4267340 1.5374515 21930.0000000
806.4711960 1.5373667 21481.0000000
806.5156580 1.5372820 21596.0000000
806.5601200 1.5371972 21650.0000000
806.6045820 1.5371125 21613.0000000
806.6490440 1.5370278 21831.0000000
806.6935060 1.5369430 21750.0000000
806.7379680 1.5368583 21730.0000000
806.7824300 1.5367736 21718.0000000
806.8268920 1.5366890 21757.0000000
806.8713540 1.5366043 21841.0000000
806.9158160 1.5365196 21734.0000000
806.9602780 1.5364349 21838.0000000
807.0047400 1.5363503 21947.0000000
807.0492020 1.5362657 21826.0000000
807.0936640 1.5361810 21743.0000000
807.1381260 1.5360964 21904.0000000
807.1825880 1.5360118 21668.0000000
807.2270500 1.5359272 21527.0000000
807.2715120 1.5358426 21550.0000000
807.3159740 1.5357580 22063.0000000
807.3604360 1.5356734 22055.0000000
807.4048980 1.5355889 21920.0000000
807.4493600 1.5355043 21930.0000000
807.4938220 1.5354198 22036.0000000
807.5382840 1.5353352 22168.0000000
807.5827460 1.5352507 21947.0000000
807.6272080 1.5351662 21937.0000000
807.6716700 1.5350817 22106.0000000
807.7161320 1.5349972 22132.0000000
807.7605940 1.5349127 22374.0000000
807.8050560 1.5348282 21773.0000000
807.8495180 1.5347437 22240.0000000
807.8939800 1.5346593 21774.0000000
807.9384420 1.5345748 22082.0000000
807.9829040 1.5344904 21983.0000000
808.0273660 1.5344059 22006.0000000
808.0718280 1.5343215 22436.0000000
808.1162900 1.5342371 22078.0000000
808.1607520 1.5341527 22081.0000000
808.2052140 1.5340683 22012.0000000
808.2496760 1.5339839 22191.0000000
808.2941380 1.5338995 22184.0000000
808.3386000 1.5338151 22423.0000000
808.3830620 1.5337308 22101.0000000
808.4275240 1.5336464 22196.0000000
808.4719860 1.5335621 22352.0000000
808.5164480 1.5334777 22444.0000000
808.5609100 1.5333934 22239.0000000
808.6053720 1.5333091 22120.0000000
808.6498340 1.5332248 22374.0000000
808.6942960 1.5331405 22404.0000000
808.7387580 1.5330562 22236.0000000
808.7832200 1.5329719 22253.0000000
808.8276820 1.5328877 22326.0000000
808.8721440 1.5328034 22551.0000000
808.9166060 1.5327191 22290.0000000
808.9610680 1.5326349 22671.0000000
809.0055300 1.5325507 22406.0000000
809.0499920 1.5324665 22827.0000000
809.0944540 1.5323822 22704.0000000
809.1389160 1.5322980 22913.0000000
809.1833780 1.5322138 22895.0000000
809.2278400 1.5321297 22734.0000000
809.2723020 1.5320455 22884.0000000
809.3167640 1.5319613 22792.0000000
809.3612260 1.5318772 22730.0000000
809.4056880 1.5317930 22839.0000000
809.4501500 1.5317089 22716.0000000
809.4946120 1.5316247 22785.0000000
809.5390740 1.5315406 22839.0000000
809.5835360 1.5314565 22939.0000000
809.6279980 1.5313724 23322.0000000
809.6724600 1.5312883 23014.0000000
809.7169220 1.5312042 23173.0000000
809.7613840 1.5311201 22895.0000000
809.8058460 1.5310361 23152.0000000
809.8503080 1.5309520 23044.0000000
809.8947700 1.5308680 22976.0000000
809.9392320 1.5307839 22826.0000000
809.9836940 1.5306999 23104.0000000
810.0281560 1.5306159 23055.0000000
810.0726180 1.5305319 23158.0000000
810.1170800 1.5304479 23199.0000000
810.1615420 1.5303639 23158.0000000
810.2060040 1.5302799 23021.0000000
810.2504660 1.5301959 23137.0000000
810.2949280 1.5301120 23059.0000000
810.3393900 1.5300280 23080.0000000
810.3838520 1.5299441 23144.0000000
810.4283140 1.5298601 23287.0000000
810.4727760 1.5297762 23227.0000000
810.5172380 1.5296923 22874.0000000
810.5617000 1.5296084 23099.0000000
810.6061620 1.5295245 23203.0000000
810.6506240 1.5294406 23387.0000000
810.6950860 1.5293567 23480.0000000
810.7395480 1.5292728 23611.0000000
810.7840100 1.5291890 23308.0000000
810.8284720 1.5291051 23385.0000000
810.8729340 1.5290213 23423.0000000
810.9173960 1.5289374 23572.0000000
810.9618580 1.5288536 23657.0000000
811.0063200 1.5287698 23332.0000000
811.0507820 1.5286860 23407.0000000
811.0952440 1.5286022 23503.0000000
811.1397060 1.5285184 23701.0000000
811.1841680 1.5284346 23790.0000000
811.2286300 1.5283509 23483.0000000
811.2730920 1.5282671 23611.0000000
811.3175540 1.5281833 23610.0000000
811.3620160 1.5280996 23478.0000000
811.4064780 1.5280159 23684.0000000
811.4509400 1.5279321 23594.0000000
811.4954020 1.5278484 23520.0000000
811.5398640 1.5277647 23397.0000000
811.5843260 1.5276810 23545.0000000
811.6287880 1.5275973 23971.0000000
811.6732500 1.5275137 23703.0000000
811.7177120 1.5274300 23616.0000000
811.7621740 1.5273463 23650.0000000
811.8066360 1.5272627 23910.0000000
811.8510980 1.5271790 23498.0000000
811.8955600 1.5270954 23744.0000000
811.9400220 1.5270118 23587.0000000
811.9844840 1.5269282 23710.0000000
812.0289460 1.5268445 23914.0000000
812.0734080 1.5267610 23540.0000000
812.1178700 1.5266774 23656.0000000
812.1623320 1.5265938 23619.0000000
812.2067940 1.5265102 23805.0000000
812.2512560 1.5264267 23577.0000000
812.2957180 1.5263431 23654.0000000
812.3401800 1.5262596 23839.0000000
812.3846420 1.5261760 23788.0000000
812.4291040 1.5260925 23787.0000000
812.4735660 1.5260090 23652.0000000
812.5180280 1.5259255 23879.0000000
812.5624900 1.5258420 23815.0000000
812.6069520 1.5257585 23640.0000000
812.6514140 1.5256750 23680.0000000
812.6958760 1.5255916 23669.0000000
812.7403380 1.5255081 23888.0000000
812.7848000 1.5254247 23607.0000000
812.8292620 1.5253412 23745.0000000
812.8737240 1.5252578 23919.0000000
812.9181860 1.5251744 23641.0000000
812.9626480 1.5250909 23768.0000000
813.0071100 1.5250075 23987.0000000
813.0515720 1.5249241 23809.0000000
813.0960340 1.5248408 24005.0000000
813.1404960 1.5247574 23622.0000000
813.1849580 1.5246740 24037.0000000
813.2294200 1.5245906 23769.0000000
813.2738820 1.5245073 24259.0000000
813.3183440 1.5244240 23856.0000000
813.3628060 1.5243406 23619.0000000
813.4072680 1.5242573 23964.0000000
813.4517300 1.5241740 23799.0000000
813.4961920 1.5240907 24068.0000000
813.5406540 1.5240074 24299.0000000
813.5851160 1.5239241 24122.0000000
813.6295780 1.5238408 23869.0000000
813.6740400 1.5237576 23759.0000000
813.7185020 1.5236743 24139.0000000
813.7629640 1.5235911 24032.0000000
813.8074260 1.5235078 24052.0000000
813.8518880 1.5234246 24046.0000000
813.8963500 1.5233414 24050.0000000
813.9408120 1.5232581 24238.0000000
813.9852740 1.5231749 24204.0000000
814.0297360 1.5230917 24126.0000000
814.0741980 1.5230086 24004.0000000
814.1186600 1.5229254 24012.0000000
814.1631220 1.5228422 24072.0000000
814.2075840 1.5227591 24137.0000000
814.2520460 1.5226759 24044.0000000
814.2965080 1.5225928 23880.0000000
814.3409700 1.5225096 23990.0000000
814.3854320 1.5224265 23996.0000000
814.4298940 1.5223434 23958.0000000
814.4743560 1.5222603 23986.0000000
814.5188180 1.5221772 24251.0000000
814.5632800 1.5220941 24354.0000000
814.6077420 1.5220110 24227.0000000
814.6522040 1.5219280 24355.0000000
814.6966660 1.5218449 24335.0000000
814.7411280 1.5217619 24353.0000000
814.7855900 1.5216788 24137.0000000
814.8300520 1.5215958 24251.0000000
814.8745140 1.5215128 24048.0000000
814.9189760 1.5214297 24122.0000000
814.9634380 1.5213467 24175.0000000
815.0079000 1.5212637 24395.0000000
815.0523620 1.5211808 24156.0000000
815.0968240 1.5210978 24359.0000000
815.1412860 1.5210148 24380.0000000
815.1857480 1.5209319 24211.0000000
815.2302100 1.5208489 24324.0000000
815.2746720 1.5207660 24514.0000000
815.3191340 1.5206830 24168.0000000
815.3635960 1.5206001 24227.0000000
815.4080580 1.5205172 24641.0000000
815.4525200 1.5204343 24708.0000000
815.4969820 1.5203514 24366.0000000
815.5414440 1.5202685 24437.0000000
815.5859060 1.5201856 24309.0000000
815.6303680 1.5201028 24762.0000000
815.6748300 1.5200199 24602.0000000
815.7192920 1.5199370 24724.0000000
815.7637540 1.5198542 24798.0000000
815.8082160 1.5197714 24659.0000000
815.8526780 1.5196885 24777.0000000
815.8971400 1.5196057 24912.0000000
815.9416020 1.5195229 24962.0000000
815.9860640 1.5194401 24710.0000000
816.0305260 1.5193573 24756.0000000
816.0749880 1.5192746 25031.0000000
816.1194500 1.5191918 24938.0000000
816.1639120 1.5191090 25361.0000000
816.2083740 1.5190263 25226.0000000
816.2528360 1.5189435 25298.0000000
816.2972980 1.5188608 25137.0000000
816.3417600 1.5187781 25248.0000000
816.3862220 1.5186954 25207.0000000
816.4306840 1.5186127 25225.0000000
816.4751460 1.5185300 25343.0000000
816.5196080 1.5184473 25208.0000000
816.5640700 1.5183646 25565.0000000
816.6085320 1.5182819 25325.0000000
816.6529940 1.5181993 25510.0000000
816.6974560 1.5181166 25352.0000000
816.7419180 1.5180340 25368.0000000
816.7863800 1.5179513 25356.0000000
816.8308420 1.5178687 25356.0000000
816.8753040 1.5177861 25375.0000000
816.9197660 1.5177035 25697.0000000
816.9642280 1.5176209 25494.0000000
817.0086900 1.5175383 25325.0000000
817.0531520 1.5174557 25349.0000000
817.0976140 1.5173731 25206.0000000
817.1420760 1.5172906 25216.0000000
817.1865380 1.5172080 25240.0000000
817.2310000 1.5171255 25299.0000000
817.2754620 1.5170429 25389.0000000
817.3199240 1.5169604 25350.0000000
817.3643860 1.5168779 25372.0000000
817.4088480 1.5167954 24900.0000000
817.4533100 1.5167129 25026.0000000
817.4977720 1.5166304 24964.0000000
817.5422340 1.5165479 25102.0000000
817.5866960 1.5164654 25059.0000000
817.6311580 1.5163830 25001.0000000
817.6756200 1.5163005 24725.0000000
817.7200820 1.5162181 25315.0000000
817.7645440 1.5161356 24973.0000000
817.8090060 1.5160532 25095.0000000
817.8534680 1.5159708 25034.0000000
817.8979300 1.5158884 24933.0000000
817.9423920 1.5158060 24969.0000000
817.9868540 1.5157236 24970.0000000
818.0313160 1.5156412 24887.0000000
818.0757780 1.5155588 24953.0000000
818.1202400 1.5154765 24840.0000000
818.1647020 1.5153941 24925.0000000
818.2091640 1.5153118 24619.0000000
818.2536260 1.5152294 24937.0000000
818.2980880 1.5151471 24749.0000000
818.3425500 1.5150648 24785.0000000
818.3870120 1.5149825 24649.0000000
818.4314740 1.5149002 24564.0000000
818.4759360 1.5148179 24674.0000000
818.5203980 1.5147356 24526.0000000
818.5648600 1.5146533 24412.0000000
818.6093220 1.5145710 24468.0000000
818.6537840 1.5144888 24142.0000000
818.6982460 1.5144065 24276.0000000
818.7427080 1.5143243 24214.0000000
818.7871700 1.5142421 24436.0000000
818.8316320 1.5141598 24268.0000000
818.8760940 1.5140776 24352.0000000
818.9205560 1.5139954 24097.0000000
818.9650180 1.5139132 24283.0000000
819.0094800 1.5138310 24139.0000000
819.0539420 1.5137489 24022.0000000
819.0984040 1.5136667 24180.0000000
819.1428660 1.5135845 23922.0000000
819.1873280 1.5135024 23983.0000000
819.2317900 1.5134202 23846.0000000
819.2762520 1.5133381 24055.0000000
819.3207140 1.5132560 23793.0000000
819.3651760 1.5131739 23860.0000000
819.4096380 1.5130918 23810.0000000
819.4541000 1.5130097 23835.0000000
819.4985620 1.5129276 23755.0000000
819.5430240 1.5128455 23692.0000000
819.5874860 1.5127634 23593.0000000
819.6319480 1.5126814 23633.0000000
819.6764100 1.5125993 23597.0000000
819.7208720 1.5125173 23472.0000000
819.7653340 1.5124352 23597.0000000
819.8097960 1.5123532 23828.0000000
819.8542580 1.5122712 23446.0000000
819.8987200 1.5121892 23352.0000000
819.9431820 1.5121072 23199.0000000
819.9876440 1.5120252 23338.0000000
820.0321060 1.5119432 22974.0000000
820.0765680 1.5118612 23324.0000000
820.1210300 1.5117793 23023.0000000
820.1654920 1.5116973 23032.0000000
820.2099540 1.5116154 23097.0000000
820.2544160 1.5115334 22928.0000000
820.2988780 1.5114515 23114.0000000
820.3433400 1.5113696 23025.0000000
820.3878020 1.5112877 22954.0000000
820.4322640 1.5112058 22845.0000000
820.4767260 1.5111239 22984.0000000
820.5211880 1.5110420 23252.0000000
820.5656500 1.5109601 22965.0000000
820.6101120 1.5108783 22947.0000000
820.6545740 1.5107964 22980.0000000
820.6990360 1.5107145 22706.0000000
820.7434980 1.5106327 22892.0000000
820.7879600 1.5105509 22725.0000000
820.8324220 1.5104691 22858.0000000
820.8768840 1.5103872 22655.0000000
820.9213460 1.5103054 22650.0000000
820.9658080 1.5102236 22386.0000000
821.0102700 1.5101419 22267.0000000
821.0547320 1.5100601 22197.0000000
821.0991940 1.5099783 22491.0000000
821.1436560 1.5098965 22315.0000000
821.1881180 1.5098148 22264.0000000
821.2325800 1.5097331 22187.0000000
821.2770420 1.5096513 22221.0000000
821.3215040 1.5095696 22348.0000000
821.3659660 1.5094879 22273.0000000
821.4104280 1.5094062 22197.0000000
821.4548900 1.5093245 22121.0000000
821.4993520 1.5092428 21867.0000000
821.5438140 1.5091611 22135.0000000
821.5882760 1.5090794 22067.0000000
821.6327380 1.5089978 21704.0000000
821.6772000 1.5089161 21982.0000000
821.7216620 1.5088345 21923.0000000
821.7661240 1.5087528 20739.0000000
821.8105860 1.5086712 20293.0000000
821.8550480 1.5085896 21579.0000000
821.8995100 1.5085080 21652.0000000
821.9439720 1.5084264 21432.0000000
821.9884340 1.5083448 21817.0000000
822.0328960 1.5082632 21493.0000000
822.0773580 1.5081816 21281.0000000
822.1218200 1.5081001 21237.0000000
822.1662820 1.5080185 21135.0000000
822.2107440 1.5079370 21302.0000000
822.2552060 1.5078554 21274.0000000
822.2996680 1.5077739 21000.0000000
822.3441300 1.5076924 20962.0000000
822.3885920 1.5076109 21251.0000000
822.4330540 1.5075294 20842.0000000
822.4775160 1.5074479 20499.0000000
822.5219780 1.5073664 20850.0000000
822.5664400 1.5072849 20711.0000000
822.6109020 1.5072034 20749.0000000
822.6553640 1.5071220 20738.0000000
822.6998260 1.5070405 21007.0000000
822.7442880 1.5069591 20616.0000000
822.7887500 1.5068776 20542.0000000
822.8332120 1.5067962 20427.0000000
822.8776740 1.5067148 20591.0000000
822.9221360 1.5066334 20432.0000000
822.9665980 1.5065520 20594.0000000
823.0110600 1.5064706 20355.0000000
823.0555220 1.5063892 20498.0000000
823.0999840 1.5063079 20136.0000000
823.1444460 1.5062265 20427.0000000
823.1889080 1.5061451 20442.0000000
823.2333700 1.5060638 20543.0000000
823.2778320 1.5059825 20249.0000000
823.3222940 1.5059011 20485.0000000
823.3667560 1.5058198 20256.0000000
823.4112180 1.5057385 20147.0000000
823.4556800 1.5056572 20185.0000000
823.5001420 1.5055759 20358.0000000
823.5446040 1.5054946 20002.0000000
823.5890660 1.5054133 20056.0000000
823.6335280 1.5053321 19933.0000000
823.6779900 1.5052508 20164.0000000
823.7224520 1.5051696 20155.0000000
823.7669140 1.5050883 20118.0000000
823.8113760 1.5050071 20130.0000000
823.8558380 1.5049259 20137.0000000
823.9003000 1.5048447 20070.0000000
823.9447620 1.5047635 19668.0000000
823.9892240 1.5046823 19621.0000000
824.0336860 1.5046011 20049.0000000
824.0781480 1.5045199 20048.0000000
824.1226100 1.5044387 19672.0000000
824.1670720 1.5043576 19831.0000000
824.2115340 1.5042764 19532.0000000
824.2559960 1.5041953 19527.0000000
824.3004580 1.5041141 19469.0000000
824.3449200 1.5040330 19475.0000000
824.3893820 1.5039519 19686.0000000
824.4338440 1.5038708 19648.0000000
824.4783060 1.5037897 19608.0000000
824.5227680 1.5037086 19864.0000000
824.5672300 1.5036275 19587.0000000
824.6116920 1.5035464 19663.0000000
824.6561540 1.5034654 19346.0000000
824.7006160 1.5033843 19185.0000000
824.4000000 1.5595496 19562.0000000
