wavelength value1 value2
765.2104600 1.6202627 164.0000000
765.2549220 1.6201686 154.0000000
765.2993840 1.6200744 150.0000000
765.3438460 1.6199803 151.0000000
765.3883080 1.6198862 144.0000000
765.4327700 1.6197921 143.0000000
765.4772320 1.6196980 151.0000000
765.5216940 1.6196040 147.0000000
765.5661560 1.6195099 171.0000000
765.6106180 1.6194159 158.0000000
765.6550800 1.6193218 154.0000000
765.6995420 1.6192278 145.0000000
765.7440040 1.6191338 152.0000000
765.7884660 1.6190398 155.0000000
765.8329280 1.6189458 150.0000000
765.8773900 1.6188518 153.0000000
765.9218520 1.6187578 164.0000000
765.9663140 1.6186638 163.0000000
766.0107760 1.6185699 163.0000000
766.0552380 1.6184759 161.0000000
766.0997000 1.6183820 152.0000000
766.1441620 1.6182881 146.0000000
766.1886240 1.6181942 157.0000000
766.2330860 1.6181003 147.0000000
766.2775480 1.6180064 177.0000000
766.3220100 1.6179125 151.0000000
766.3664720 1.6178186 160.0000000
766.4109340 1.6177248 152.0000000
766.4553960 1.6176309 151.0000000
766.4998580 1.6175371 160.0000000
766.5443200 1.6174433 164.0000000
766.5887820 1.6173495 152.0000000
766.6332440 1.6172557 168.0000000
766.6777060 1.6171619 153.0000000
766.7221680 1.6170681 156.0000000
766.7666300 1.6169743 151.0000000
766.8110920 1.6168806 170.0000000
766.8555540 1.6167868 159.0000000
766.9000160 1.6166931 160.0000000
766.9444780 1.6165994 158.0000000
766.9889400 1.6165057 166.0000000
767.0334020 1.6164120 158.0000000
767.0778640 1.6163183 162.0000000
767.1223260 1.6162246 155.0000000
767.1667880 1.6161309 158.0000000
767.2112500 1.6160373 161.0000000
767.2557120 1.6159436 153.0000000
767.3001740 1.6158500 151.0000000
767.3446360 1.6157564 146.0000000
767.3890980 1.6156627 154.0000000
767.4335600 1.6155691 166.0000000
767.4780220 1.6154755 162.0000000
767.5224840 1.6153820 150.0000000
767.5669460 1.6152884 164.0000000
767.6114080 1.6151948 159.0000000
767.6558700 1.6151013 167.0000000
767.7003320 1.6150077 162.0000000
767.7447940 1.6149142 155.0000000
767.7892560 1.6148207 157.0000000
767.8337180 1.6147272 156.0000000
767.8781800 1.6146337 163.0000000
767.9226420 1.6145402 158.0000000
767.9671040 1.6144467 147.0000000
768.0115660 1.6143533 147.0000000
768.0560280 1.6142598 165.0000000
768.1004900 1.6141664 167.0000000
768.1449520 1.6140729 165.0000000
768.1894140 1.6139795 151.0000000
768.2338760 1.6138861 159.0000000
768.2783380 1.6137927 148.0000000
768.3228000 1.6136993 159.0000000
768.3672620 1.6136059 166.0000000
768.4117240 1.6135126 155.0000000
768.4561860 1.6134192 157.0000000
768.5006480 1.6133259 156.0000000
768.5451100 1.6132325 155.0000000
768.5895720 1.6131392 163.0000000
768.6340340 1.6130459 155.0000000
768.6784960 1.6129526 156.0000000
768.7229580 1.6128593 157.0000000
768.7674200 1.6127660 167.0000000
768.8118820 1.6126727 163.0000000
768.8563440 1.6125795 165.0000000
768.9008060 1.6124862 154.0000000
768.9452680 1.6123930 146.0000000
768.9897300 1.6122998 151.0000000
769.0341920 1.6122066 163.0000000
769.0786540 1.6121134 166.0000000
769.1231160 1.6120202 166.0000000
769.1675780 1.6119270 158.0000000
769.2120400 1.6118338 162.0000000
769.2565020 1.6117406 152.0000000
769.3009640 1.6116475 152.0000000
769.3454260 1.6115544 163.0000000
769.3898880 1.6114612 158.0000000
769.4343500 1.6113681 153.0000000
769.4788120 1.6112750 161.0000000
769.5232740 1.6111819 163.0000000
769.5677360 1.6110888 164.0000000
769.6121980 1.6109957 157.0000000
769.6566600 1.6109027 160.0000000
769.7011220 1.6108096 162.0000000
769.7455840 1.6107166 178.0000000
769.7900460 1.6106235 164.0000000
769.8345080 1.6105305 150.0000000
769.8789700 1.6104375 160.0000000
769.9234320 1.6103445 153.0000000
769.9678940 1.6102515 158.0000000
770.0123560 1.6101585 160.0000000
770.0568180 1.6100656 156.0000000
770.1012800 1.6099726 161.0000000
770.1457420 1.6098797 158.0000000
770.1902040 1.6097867 157.0000000
770.2346660 1.6096938 163.0000000
770.2791280 1.6096009 157.0000000
770.3235900 1.6095080 158.0000000
770.3680520 1.6094151 165.0000000
770.4125140 1.6093222 149.0000000
770.4569760 1.6092293 161.0000000
770.5014380 1.6091365 157.0000000
770.5459000 1.6090436 157.0000000
770.5903620 1.6089508 163.0000000
770.6348240 1.6088580 151.0000000
770.6792860 1.6087651 171.0000000
770.7237480 1.6086723 170.0000000
770.7682100 1.6085795 165.0000000
770.8126720 1.6084868 153.0000000
770.8571340 1.6083940 162.0000000
770.9015960 1.6083012 158.0000000
770.9460580 1.6082085 167.0000000
770.9905200 1.6081157 155.0000000
771.0349820 1.6080230 163.0000000
771.0794440 1.6079303 163.0000000
771.1239060 1.6078375 168.0000000
771.1683680 1.6077448 166.0000000
771.2128300 1.6076522 154.0000000
771.2572920 1.6075595 168.0000000
771.3017540 1.6074668 152.0000000
771.3462160 1.6073742 162.0000000
771.3906780 1.6072815 168.0000000
771.4351400 1.6071889 161.0000000
771.4796020 1.6070962 158.0000000
771.5240640 1.6070036 148.0000000
771.5685260 1.6069110 157.0000000
771.6129880 1.6068184 170.0000000
771.6574500 1.6067258 164.0000000
771.7019120 1.6066333 148.0000000
771.7463740 1.6065407 157.0000000
771.7908360 1.6064482 148.0000000
771.8352980 1.6063556 156.0000000
771.8797600 1.6062631 162.0000000
771.9242220 1.6061706 162.0000000
771.9686840 1.6060781 170.0000000
772.0131460 1.6059856 169.0000000
772.0576080 1.6058931 167.0000000
772.1020700 1.6058006 153.0000000
772.1465320 1.6057081 165.0000000
772.1909940 1.6056157 162.0000000
772.2354560 1.6055232 176.0000000
772.2799180 1.6054308 151.0000000
772.3243800 1.6053384 165.0000000
772.3688420 1.6052460 153.0000000
772.4133040 1.6051536 159.0000000
772.4577660 1.6050612 158.0000000
772.5022280 1.6049688 170.0000000
772.5466900 1.6048764 162.0000000
772.5911520 1.6047841 172.0000000
772.6356140 1.6046917 156.0000000
772.6800760 1.6045994 168.0000000
772.7245380 1.6045071 160.0000000
772.7690000 1.6044147 160.0000000
772.8134620 1.6043224 155.0000000
772.8579240 1.6042301 162.0000000
772.9023860 1.6041378 180.0000000
772.9468480 1.6040456 159.0000000
772.9913100 1.6039533 160.0000000
773.0357720 1.6038611 165.0000000
773.0802340 1.6037688 156.0000000
773.1246960 1.6036766 146.0000000
773.1691580 1.6035844 172.0000000
773.2136200 1.6034922 158.0000000
773.2580820 1.6033999 160.0000000
773.3025440 1.6033078 166.0000000
773.3470060 1.6032156 162.0000000
773.3914680 1.6031234 152.0000000
773.4359300 1.6030313 149.0000000
773.4803920 1.6029391 146.0000000
773.5248540 1.6028470 155.0000000
773.5693160 1.6027548 169.0000000
773.6137780 1.6026627 168.0000000
773.6582400 1.6025706 165.0000000
773.7027020 1.6024785 153.0000000
773.7471640 1.6023864 143.0000000
773.7916260 1.6022944 165.0000000
773.8360880 1.6022023 149.0000000
773.8805500 1.6021103 158.0000000
773.9250120 1.6020182 160.0000000
773.9694740 1.6019262 163.0000000
774.0139360 1.6018342 177.0000000
774.0583980 1.6017422 164.0000000
774.1028600 1.6016502 168.0000000
774.1473220 1.6015582 175.0000000
774.1917840 1.6014662 154.0000000
774.2362460 1.6013742 164.0000000
774.2807080 1.6012823 161.0000000
774.3251700 1.6011903 166.0000000
774.3696320 1.6010984 167.0000000
774.4140940 1.6010065 152.0000000
774.4585560 1.6009145 165.0000000
774.5030180 1.6008226 160.0000000
774.5474800 1.6007308 165.0000000
774.5919420 1.6006389 157.0000000
774.6364040 1.6005470 164.0000000
774.6808660 1.6004551 163.0000000
774.7253280 1.6003633 173.0000000
774.7697900 1.6002714 157.0000000
774.8142520 1.6001796 161.0000000
774.8587140 1.6000878 162.0000000
774.9031760 1.5999960 157.0000000
774.9476380 1.5999042 170.0000000
774.9921000 1.5998124 160.0000000
775.0365620 1.5997206 168.0000000
775.0810240 1.5996289 161.0000000
775.1254860 1.5995371 168.0000000
775.1699480 1.5994454 154.0000000
775.2144100 1.5993536 162.0000000
775.2588720 1.5992619 152.0000000
775.3033340 1.5991702 166.0000000
775.3477960 1.5990785 171.0000000
775.3922580 1.5989868 157.0000000
775.4367200 1.5988951 166.0000000
775.4811820 1.5988034 166.0000000
775.5256440 1.5987118 149.0000000
775.5701060 1.5986201 169.0000000
775.6145680 1.5985285 179.0000000
775.6590300 1.5984368 166.0000000
775.7034920 1.5983452 170.0000000
775.7479540 1.5982536 171.0000000
775.7924160 1.5981620 163.0000000
775.8368780 1.5980704 164.0000000
775.8813400 1.5979788 177.0000000
775.9258020 1.5978873 156.0000000
775.9702640 1.5977957 170.0000000
776.0147260 1.5977042 168.0000000
776.0591880 1.5976126 170.0000000
776.1036500 1.5975211 165.0000000
776.1481120 1.5974296 170.0000000
776.1925740 1.5973381 161.0000000
776.2370360 1.5972466 153.0000000
776.2814980 1.5971551 165.0000000
776.3259600 1.5970636 156.0000000
776.3704220 1.5969722 154.0000000
776.4148840 1.5968807 159.0000000
776.4593460 1.5967893 157.0000000
776.5038080 1.5966979 168.0000000
776.5482700 1.5966064 147.0000000
776.5927320 1.5965150 155.0000000
776.6371940 1.5964236 157.0000000
776.6816560 1.5963322 173.0000000
776.7261180 1.5962409 164.0000000
776.7705800 1.5961495 147.0000000
776.8150420 1.5960581 165.0000000
776.8595040 1.5959668 178.0000000
776.9039660 1.5958755 175.0000000
776.9484280 1.5957841 155.0000000
776.9928900 1.5956928 154.0000000
777.0373520 1.5956015 158.0000000
777.0818140 1.5955102 168.0000000
777.1262760 1.5954189 161.0000000
777.1707380 1.5953277 154.0000000
777.2152000 1.5952364 148.0000000
777.2596620 1.5951451 163.0000000
777.3041240 1.5950539 160.0000000
777.3485860 1.5949627 164.0000000
777.3930480 1.5948714 161.0000000
777.4375100 1.5947802 164.0000000
777.4819720 1.5946890 155.0000000
777.5264340 1.5945978 164.0000000
777.5708960 1.5945067 172.0000000
777.6153580 1.5944155 163.0000000
777.6598200 1.5943243 161.0000000
777.7042820 1.5942332 166.0000000
777.7487440 1.5941420 167.0000000
777.7932060 1.5940509 170.0000000
777.8376680 1.5939598 181.0000000
777.8821300 1.5938687 173.0000000
777.9265920 1.5937776 159.0000000
777.9710540 1.5936865 172.0000000
778.0155160 1.5935954 167.0000000
778.0599780 1.5935044 177.0000000
778.1044400 1.5934133 156.0000000
778.1489020 1.5933223 168.0000000
778.1933640 1.5932312 171.0000000
778.2378260 1.5931402 172.0000000
778.2822880 1.5930492 174.0000000
778.3267500 1.5929582 165.0000000
778.3712120 1.5928672 176.0000000
778.4156740 1.5927762 159.0000000
778.4601360 1.5926852 181.0000000
778.5045980 1.5925943 169.0000000
778.5490600 1.5925033 166.0000000
778.5935220 1.5924124 173.0000000
778.6379840 1.5923215 167.0000000
778.6824460 1.5922305 173.0000000
778.7269080 1.5921396 170.0000000
778.7713700 1.5920487 156.0000000
778.8158320 1.5919578 168.0000000
778.8602940 1.5918670 167.0000000
778.9047560 1.5917761 168.0000000
778.9492180 1.5916852 165.0000000
778.9936800 1.5915944 176.0000000
779.0381420 1.5915036 161.0000000
779.0826040 1.5914127 162.0000000
779.1270660 1.5913219 173.0000000
779.1715280 1.5912311 183.0000000
779.2159900 1.5911403 173.0000000
779.2604520 1.5910495 151.0000000
779.3049140 1.5909587 165.0000000
779.3493760 1.5908680 159.0000000
779.3938380 1.5907772 179.0000000
779.4383000 1.5906865 165.0000000
779.4827620 1.5905958 160.0000000
779.5272240 1.5905050 170.0000000
779.5716860 1.5904143 162.0000000
779.6161480 1.5903236 159.0000000
779.6606100 1.5902329 186.0000000
779.7050720 1.5901422 167.0000000
779.7495340 1.5900516 184.0000000
779.7939960 1.5899609 163.0000000
779.8384580 1.5898703 176.0000000
779.8829200 1.5897796 163.0000000
779.9273820 1.5896890 163.0000000
779.9718440 1.5895984 169.0000000
780.0163060 1.5895078 170.0000000
780.0607680 1.5894172 169.0000000
780.1052300 1.5893266 183.0000000
780.1496920 1.5892360 156.0000000
780.1941540 1.5891454 162.0000000
780.2386160 1.5890549 173.0000000
780.2830780 1.5889643 148.0000000
780.3275400 1.5888738 177.0000000
780.3720020 1.5887833 176.0000000
780.4164640 1.5886927 166.0000000
780.4609260 1.5886022 174.0000000
780.5053880 1.5885117 164.0000000
780.5498500 1.5884213 148.0000000
780.5943120 1.5883308 170.0000000
780.6387740 1.5882403 178.0000000
780.6832360 1.5881499 161.0000000
780.7276980 1.5880594 161.0000000
780.7721600 1.5879690 161.0000000
780.8166220 1.5878786 182.0000000
780.8610840 1.5877881 173.0000000
780.9055460 1.5876977 162.0000000
780.9500080 1.5876073 158.0000000
780.9944700 1.5875170 190.0000000
781.0389320 1.5874266 175.0000000
781.0833940 1.5873362 170.0000000
781.1278560 1.5872459 172.0000000
781.1723180 1.5871555 177.0000000
781.2167800 1.5870652 164.0000000
781.2612420 1.5869749 167.0000000
781.3057040 1.5868846 179.0000000
781.3501660 1.5867943 180.0000000
781.3946280 1.5867040 196.0000000
781.4390900 1.5866137 169.0000000
781.4835520 1.5865234 159.0000000
781.5280140 1.5864332 159.0000000
781.5724760 1.5863429 185.0000000
781.6169380 1.5862527 170.0000000
781.6614000 1.5861625 179.0000000
781.7058620 1.5860722 166.0000000
781.7503240 1.5859820 157.0000000
781.7947860 1.5858918 172.0000000
781.8392480 1.5858017 162.0000000
781.8837100 1.5857115 169.0000000
781.9281720 1.5856213 171.0000000
781.9726340 1.5855312 170.0000000
782.0170960 1.5854410 165.0000000
782.0615580 1.5853509 173.0000000
782.1060200 1.5852607 174.0000000
782.1504820 1.5851706 170.0000000
782.1949440 1.5850805 175.0000000
782.2394060 1.5849904 179.0000000
782.2838680 1.5849003 180.0000000
782.3283300 1.5848103 165.0000000
782.3727920 1.5847202 178.0000000
782.4172540 1.5846301 170.0000000
782.4617160 1.5845401 191.0000000
782.5061780 1.5844501 183.0000000
782.5506400 1.5843600 172.0000000
782.5951020 1.5842700 178.0000000
782.6395640 1.5841800 159.0000000
782.6840260 1.5840900 171.0000000
782.7284880 1.5840001 170.0000000
782.7729500 1.5839101 182.0000000
782.8174120 1.5838201 180.0000000
782.8618740 1.5837302 171.0000000
782.9063360 1.5836402 178.0000000
782.9507980 1.5835503 184.0000000
782.9952600 1.5834604 194.0000000
783.0397220 1.5833705 173.0000000
783.0841840 1.5832806 181.0000000
783.1286460 1.5831907 181.0000000
783.1731080 1.5831008 172.0000000
783.2175700 1.5830109 167.0000000
783.2620320 1.5829211 185.0000000
783.3064940 1.5828312 170.0000000
783.3509560 1.5827414 176.0000000
783.3954180 1.5826515 187.0000000
783.4398800 1.5825617 173.0000000
783.4843420 1.5824719 184.0000000
783.5288040 1.5823821 179.0000000
783.5732660 1.5822923 185.0000000
783.6177280 1.5822026 191.0000000
783.6621900 1.5821128 195.0000000
783.7066520 1.5820230 172.0000000
783.7511140 1.5819333 175.0000000
783.7955760 1.5818435 163.0000000
783.8400380 1.5817538 173.0000000
783.8845000 1.5816641 177.0000000
783.9289620 1.5815744 170.0000000
783.9734240 1.5814847 182.0000000
784.0178860 1.5813950 188.0000000
784.0623480 1.5813053 177.0000000
784.1068100 1.5812157 182.0000000
784.1512720 1.5811260 184.0000000
784.1957340 1.5810364 187.0000000
784.2401960 1.5809467 173.0000000
784.2846580 1.5808571 189.0000000
784.3291200 1.5807675 186.0000000
784.3735820 1.5806779 183.0000000
784.4180440 1.5805883 179.0000000
784.4625060 1.5804987 191.0000000
784.5069680 1.5804091 207.0000000
784.5514300 1.5803196 166.0000000
784.5958920 1.5802300 181.0000000
784.6403540 1.5801405 196.0000000
784.6848160 1.5800509 193.0000000
784.7292780 1.5799614 187.0000000
784.7737400 1.5798719 183.0000000
784.8182020 1.5797824 210.0000000
784.8626640 1.5796929 185.0000000
784.9071260 1.5796034 181.0000000
784.9515880 1.5795139 188.0000000
784.9960500 1.5794245 192.0000000
785.0405120 1.5793350 190.0000000
785.0849740 1.5792456 185.0000000
785.1294360 1.5791561 174.0000000
785.1738980 1.5790667 179.0000000
785.2183600 1.5789773 174.0000000
785.2628220 1.5788879 198.0000000
785.3072840 1.5787985 197.0000000
785.3517460 1.5787091 178.0000000
785.3962080 1.5786198 175.0000000
785.4406700 1.5785304 178.0000000
785.4851320 1.5784410 193.0000000
785.5295940 1.5783517 191.0000000
785.5740560 1.5782624 187.0000000
785.6185180 1.5781730 209.0000000
785.6629800 1.5780837 198.0000000
785.7074420 1.5779944 197.0000000
785.7519040 1.5779051 197.0000000
785.7963660 1.5778159 182.0000000
785.8408280 1.5777266 191.0000000
785.8852900 1.5776373 197.0000000
785.9297520 1.5775481 180.0000000
785.9742140 1.5774588 184.0000000
786.0186760 1.5773696 182.0000000
786.0631380 1.5772804 194.0000000
786.1076000 1.5771912 203.0000000
786.1520620 1.5771020 173.0000000
786.1965240 1.5770128 207.0000000
786.2409860 1.5769236 197.0000000
786.2854480 1.5768344 198.0000000
786.3299100 1.5767453 187.0000000
786.3743720 1.5766561 199.0000000
786.4188340 1.5765670 198.0000000
786.4632960 1.5764779 207.0000000
786.5077580 1.5763887 195.0000000
786.5522200 1.5762996 194.0000000
786.5966820 1.5762105 194.0000000
786.6411440 1.5761214 185.0000000
786.6856060 1.5760324 193.0000000
786.7300680 1.5759433 205.0000000
786.7745300 1.5758542 193.0000000
786.8189920 1.5757652 194.0000000
786.8634540 1.5756761 209.0000000
786.9079160 1.5755871 193.0000000
786.9523780 1.5754981 205.0000000
786.9968400 1.5754091 193.0000000
787.0413020 1.5753201 197.0000000
787.0857640 1.5752311 212.0000000
787.1302260 1.5751421 199.0000000
787.1746880 1.5750531 201.0000000
787.2191500 1.5749642 190.0000000
787.2636120 1.5748752 199.0000000
787.3080740 1.5747863 210.0000000
787.3525360 1.5746974 212.0000000
787.3969980 1.5746085 206.0000000
787.4414600 1.5745195 222.0000000
787.4859220 1.5744306 208.0000000
787.5303840 1.5743418 220.0000000
787.5748460 1.5742529 213.0000000
787.6193080 1.5741640 203.0000000
787.6637700 1.5740752 217.0000000
787.7082320 1.5739863 214.0000000
787.7526940 1.5738975 212.0000000
787.7971560 1.5738086 196.0000000
787.8416180 1.5737198 225.0000000
787.8860800 1.5736310 204.0000000
787.9305420 1.5735422 206.0000000
787.9750040 1.5734534 198.0000000
788.0194660 1.5733646 221.0000000
788.0639280 1.5732759 211.0000000
788.1083900 1.5731871 216.0000000
788.1528520 1.5730984 208.0000000
788.1973140 1.5730096 242.0000000
788.2417760 1.5729209 202.0000000
788.2862380 1.5728322 235.0000000
788.3307000 1.5727435 221.0000000
788.3751620 1.5726548 219.0000000
788.4196240 1.5725661 228.0000000
788.4640860 1.5724774 210.0000000
788.5085480 1.5723887 207.0000000
788.5530100 1.5723001 241.0000000
788.5974720 1.5722114 205.0000000
788.6419340 1.5721228 222.0000000
788.6863960 1.5720342 217.0000000
788.7308580 1.5719456 224.0000000
788.7753200 1.5718570 209.0000000
788.8197820 1.5717684 206.0000000
788.8642440 1.5716798 217.0000000
788.9087060 1.5715912 216.0000000
788.9531680 1.5715026 211.0000000
788.9976300 1.5714141 222.0000000
789.0420920 1.5713255 219.0000000
789.0865540 1.5712370 227.0000000
789.1310160 1.5711484 232.0000000
789.1754780 1.5710599 229.0000000
789.2199400 1.5709714 239.0000000
789.2644020 1.5708829 243.0000000
789.3088640 1.5707944 227.0000000
789.3533260 1.5707060 218.0000000
789.3977880 1.5706175 233.0000000
789.4422500 1.5705290 255.0000000
789.4867120 1.5704406 251.0000000
789.5311740 1.5703521 232.0000000
789.5756360 1.5702637 252.0000000
789.6200980 1.5701753 249.0000000
789.6645600 1.5700869 248.0000000
789.7090220 1.5699985 241.0000000
789.7534840 1.5699101 241.0000000
789.7979460 1.5698217 267.0000000
789.8424080 1.5697334 245.0000000
789.8868700 1.5696450 239.0000000
789.9313320 1.5695566 278.0000000
789.9757940 1.5694683 248.0000000
790.0202560 1.5693800 248.0000000
790.0647180 1.5692917 264.0000000
790.1091800 1.5692033 267.0000000
790.1536420 1.5691150 277.0000000
790.1981040 1.5690268 248.0000000
790.2425660 1.5689385 257.0000000
790.2870280 1.5688502 280.0000000
790.3314900 1.5687620 275.0000000
790.3759520 1.5686737 243.0000000
790.4204140 1.5685855 268.0000000
790.4648760 1.5684972 259.0000000
790.5093380 1.5684090 279.0000000
790.5538000 1.5683208 270.0000000
790.5982620 1.5682326 271.0000000
790.6427240 1.5681444 258.0000000
790.6871860 1.5680562 271.0000000
790.7316480 1.5679681 288.0000000
790.7761100 1.5678799 260.0000000
790.8205720 1.5677918 290.0000000
790.8650340 1.5677036 303.0000000
790.9094960 1.5676155 290.0000000
790.9539580 1.5675274 278.0000000
790.9984200 1.5674392 305.0000000
791.0428820 1.5673511 300.0000000
791.0873440 1.5672631 289.0000000
791.1318060 1.5671750 292.0000000
791.1762680 1.5670869 297.0000000
791.2207300 1.5669988 305.0000000
791.2651920 1.5669108 298.0000000
791.3096540 1.5668228 324.0000000
791.3541160 1.5667347 299.0000000
791.3985780 1.5666467 332.0000000
791.4430400 1.5665587 318.0000000
791.4875020 1.5664707 324.0000000
791.5319640 1.5663827 303.0000000
791.5764260 1.5662947 309.0000000
791.6208880 1.5662067 337.0000000
791.6653500 1.5661188 348.0000000
791.7098120 1.5660308 319.0000000
791.7542740 1.5659429 356.0000000
791.7987360 1.5658549 333.0000000
791.8431980 1.5657670 321.0000000
791.8876600 1.5656791 337.0000000
791.9321220 1.5655912 328.0000000
791.9765840 1.5655033 348.0000000
792.0210460 1.5654154 354.0000000
792.0655080 1.5653276 390.0000000
792.1099700 1.5652397 395.0000000
792.1544320 1.5651518 336.0000000
792.1988940 1.5650640 366.0000000
792.2433560 1.5649762 359.0000000
792.2878180 1.5648883 395.0000000
792.3322800 1.5648005 355.0000000
792.3767420 1.5647127 390.0000000
792.4212040 1.5646249 390.0000000
792.4656660 1.5645371 386.0000000
792.5101280 1.5644494 386.0000000
792.5545900 1.5643616 391.0000000
792.5990520 1.5642738 411.0000000
792.6435140 1.5641861 423.0000000
792.6879760 1.5640984 402.0000000
792.7324380 1.5640106 388.0000000
792.7769000 1.5639229 409.0000000
792.8213620 1.5638352 432.0000000
792.8658240 1.5637475 434.0000000
792.9102860 1.5636598 470.0000000
792.9547480 1.5635722 437.0000000
792.9992100 1.5634845 428.0000000
793.0436720 1.5633968 481.0000000
793.0881340 1.5633092 433.0000000
793.1325960 1.5632216 431.0000000
793.1770580 1.5631339 468.0000000
793.2215200 1.5630463 451.0000000
793.2659820 1.5629587 480.0000000
793.3104440 1.5628711 484.0000000
793.3549060 1.5627835 460.0000000
793.3993680 1.5626959 487.0000000
793.4438300 1.5626084 541.0000000
793.4882920 1.5625208 503.0000000
793.5327540 1.5624333 527.0000000
793.5772160 1.5623457 508.0000000
793.6216780 1.5622582 506.0000000
793.6661400 1.5621707 545.0000000
793.7106020 1.5620832 567.0000000
793.7550640 1.5619957 574.0000000
793.7995260 1.5619082 516.0000000
793.8439880 1.5618207 561.0000000
793.8884500 1.5617332 572.0000000
793.9329120 1.5616458 557.0000000
793.9773740 1.5615583 605.0000000
794.0218360 1.5614709 578.0000000
794.0662980 1.5613834 607.0000000
794.1107600 1.5612960 640.0000000
794.1552220 1.5612086 666.0000000
794.1996840 1.5611212 590.0000000
794.2441460 1.5610338 648.0000000
794.2886080 1.5609464 666.0000000
794.3330700 1.5608591 624.0000000
794.3775320 1.5607717 696.0000000
794.4219940 1.5606843 705.0000000
794.4664560 1.5605970 650.0000000
794.5109180 1.5605097 683.0000000
794.5553800 1.5604223 728.0000000
794.5998420 1.5603350 723.0000000
794.6443040 1.5602477 736.0000000
794.6887660 1.5601604 718.0000000
794.7332280 1.5600731 791.0000000
794.7776900 1.5599859 780.0000000
794.8221520 1.5598986 801.0000000
794.8666140 1.5598114 827.0000000
794.9110760 1.5597241 816.0000000
794.9555380 1.5596369 837.0000000
795.0000000 1.5595496 825.0000000
795.0444620 1.5594624 887.0000000
795.0889240 1.5593752 898.0000000
795.1333860 1.5592880 888.0000000
795.1778480 1.5592008 880.0000000
795.2223100 1.5591137 934.0000000
795.2667720 1.5590265 948.0000000
795.3112340 1.5589393 921.0000000
795.3556960 1.5588522 973.0000000
795.4001580 1.5587651 937.0000000
795.4446200 1.5586779 1025.0000000
795.4890820 1.5585908 1000.0000000
795.5335440 1.5585037 1006.0000000
795.5780060 1.5584166 1051.0000000
795.6224680 1.5583295 1039.0000000
795.6669300 1.5582424 1071.0000000
795.7113920 1.5581554 1120.0000000
795.7558540 1.5580683 1077.0000000
795.8003160 1.5579812 1107.0000000
795.8447780 1.5578942 1107.0000000
795.8892400 1.5578072 1166.0000000
795.9337020 1.5577202 1212.0000000
795.9781640 1.5576331 1173.0000000
796.0226260 1.5575461 1248.0000000
796.0670880 1.5574591 1284.0000000
796.1115500 1.5573722 1296.0000000
796.1560120 1.5572852 1293.0000000
796.2004740 1.5571982 1326.0000000
796.2449360 1.5571113 1411.0000000
796.2893980 1.5570243 1375.0000000
796.3338600 1.5569374 1390.0000000
796.3783220 1.5568505 1396.0000000
796.4227840 1.5567636 1431.0000000
796.4672460 1.5566767 1459.0000000
796.5117080 1.5565898 1497.0000000
796.5561700 1.5565029 1496.0000000
796.6006320 1.5564160 1497.0000000
796.6450940 1.5563291 1526.0000000
796.6895560 1.5562423 1592.0000000
796.7340180 1.5561554 1649.0000000
796.7784800 1.5560686 1531.0000000
796.8229420 1.5559818 1634.0000000
796.8674040 1.5558950 1619.0000000
796.9118660 1.5558081 1674.0000000
796.9563280 1.5557213 1741.0000000
797.0007900 1.5556346 1807.0000000
797.0452520 1.5555478 1703.0000000
797.0897140 1.5554610 1739.0000000
797.1341760 1.5553742 1862.0000000
797.1786380 1.5552875 1876.0000000
797.2231000 1.5552008 1947.0000000
797.2675620 1.5551140 1952.0000000
797.3120240 1.5550273 1980.0000000
797.3564860 1.5549406 1990.0000000
797.4009480 1.5548539 2051.0000000
797.4454100 1.5547672 2174.0000000
797.4898720 1.5546805 2077.0000000
797.5343340 1.5545938 2199.0000000
797.5787960 1.5545072 2257.0000000
797.6232580 1.5544205 2233.0000000
797.6677200 1.5543339 2291.0000000
797.7121820 1.5542473 2362.0000000
797.7566440 1.5541606 2419.0000000
797.8011060 1.5540740 2362.0000000
797.8455680 1.5539874 2425.0000000
797.8900300 1.5539008 2527.0000000
797.9344920 1.5538142 2555.0000000
797.9789540 1.5537277 2592.0000000
798.0234160 1.5536411 2590.0000000
798.0678780 1.5535545 2586.0000000
798.1123400 1.5534680 2658.0000000
798.1568020 1.5533814 2673.0000000
798.2012640 1.5532949 2757.0000000
798.2457260 1.5532084 2877.0000000
798.2901880 1.5531219 2824.0000000
798.3346500 1.5530354 2937.0000000
798.3791120 1.5529489 2983.0000000
798.4235740 1.5528624 3079.0000000
798.4680360 1.5527760 3080.0000000
798.5124980 1.5526895 3035.0000000
798.5569600 1.5526030 3161.0000000
798.6014220 1.5525166 3169.0000000
798.6458840 1.5524302 3211.0000000
798.6903460 1.5523438 3305.0000000
798.7348080 1.5522573 3478.0000000
798.7792700 1.5521709 3468.0000000
798.8237320 1.5520845 3550.0000000
798.8681940 1.5519982 3567.0000000
798.9126560 1.5519118 3569.0000000
798.9571180 1.5518254 3655.0000000
799.0015800 1.5517391 3723.0000000
799.0460420 1.5516527 3875.0000000
799.0905040 1.5515664 3737.0000000
799.1349660 1.5514801 3956.0000000
799.1794280 1.5513938 3920.0000000
799.2238900 1.5513074 3954.0000000
799.2683520 1.5512211 4075.0000000
799.3128140 1.5511349 4076.0000000
799.3572760 1.5510486 4317.0000000
799.4017380 1.5509623 4298.0000000
799.4462000 1.5508761 4265.0000000
799.4906620 1.5507898 4390.0000000
799.5351240 1.5507036 4496.0000000
799.5795860 1.5506173 4570.0000000
799.6240480 1.5505311 4666.0000000
799.6685100 1.5504449 4547.0000000
799.7129720 1.5503587 4739.0000000
799.7574340 1.5502725 4884.0000000
799.8018960 1.5501863 4993.0000000
799.8463580 1.5501002 5011.0000000
799.8908200 1.5500140 5088.0000000
799.9352820 1.5499278 5004.0000000
799.9797440 1.5498417 5182.0000000
800.0242060 1.5497556 5176.0000000
800.0686680 1.5496694 5247.0000000
800.1131300 1.5495833 5436.0000000
800.1575920 1.5494972 5382.0000000
800.2020540 1.5494111 5550.0000000
800.2465160 1.5493250 5687.0000000
800.2909780 1.5492390 5739.0000000
800.3354400 1.5491529 5771.0000000
800.3799020 1.5490668 5848.0000000
800.4243640 1.5489808 5942.0000000
800.4688260 1.5488948 6103.0000000
800.5132880 1.5488087 6036.0000000
800.5577500 1.5487227 6227.0000000
800.6022120 1.5486367 6269.0000000
800.6466740 1.5485507 6287.0000000
800.6911360 1.5484647 6493.0000000
800.7355980 1.5483787 6573.0000000
800.7800600 1.5482928 6699.0000000
800.8245220 1.5482068 6752.0000000
800.8689840 1.5481208 6752.0000000
800.9134460 1.5480349 7127.0000000
800.9579080 1.5479490 7092.0000000
801.0023700 1.5478630 7251.0000000
801.0468320 1.5477771 7456.0000000
801.0912940 1.5476912 7553.0000000
801.1357560 1.5476053 7515.0000000
801.1802180 1.5475194 7733.0000000
801.2246800 1.5474336 7787.0000000
801.2691420 1.5473477 8012.0000000
801.3136040 1.5472619 8045.0000000
801.3580660 1.5471760 8255.0000000
801.4025280 1.5470902 8399.0000000
801.4469900 1.5470043 8847.0000000
801.4914520 1.5469185 8748.0000000
801.5359140 1.5468327 8864.0000000
801.5803760 1.5467469 9110.0000000
801.6248380 1.5466611 9278.0000000
801.6693000 1.5465753 9469.0000000
801.7137620 1.5464896 9714.0000000
801.7582240 1.5464038 9813.0000000
801.8026860 1.5463181 10182.0000000
801.8471480 1.5462323 10486.0000000
801.8916100 1.5461466 10719.0000000
801.9360720 1.5460609 10909.0000000
801.9805340 1.5459751 11288.0000000
802.0249960 1.5458894 11430.0000000
802.0694580 1.5458037 11595.0000000
802.1139200 1.5457181 12072.0000000
802.1583820 1.5456324 12408.0000000
802.2028440 1.5455467 12693.0000000
802.2473060 1.5454611 12927.0000000
802.2917680 1.5453754 13344.0000000
802.3362300 1.5452898 13447.0000000
802.3806920 1.5452041 14037.0000000
802.4251540 1.5451185 13987.0000000
802.4696160 1.5450329 14427.0000000
802.5140780 1.5449473 14657.0000000
802.5585400 1.5448617 15008.0000000
802.6030020 1.5447761 15283.0000000
802.6474640 1.5446906 15404.0000000
802.6919260 1.5446050 15777.0000000
802.7363880 1.5445195 15726.0000000
802.7808500 1.5444339 15994.0000000
802.8253120 1.5443484 16412.0000000
802.8697740 1.5442629 16481.0000000
802.9142360 1.5441773 16799.0000000
802.9586980 1.5440918 17188.0000000
803.0031600 1.5440063 17046.0000000
803.0476220 1.5439209 16897.0000000
803.0920840 1.5438354 17311.0000000
803.1365460 1.5437499 17416.0000000
803.1810080 1.5436645 17485.0000000
803.2254700 1.5435790 17404.0000000
803.2699320 1.5434936 17371.0000000
803.3143940 1.5434081 17462.0000000
803.3588560 1.5433227 17506.0000000
803.4033180 1.5432373 17430.0000000
803.4477800 1.5431519 17555.0000000
803.4922420 1.5430665 17423.0000000
803.5367040 1.5429811 17353.0000000
803.5811660 1.5428958 17444.0000000
803.6256280 1.5428104 17557.0000000
803.6700900 1.5427250 17233.0000000
803.7145520 1.5426397 17200.0000000
803.7590140 1.5425544 17071.0000000
803.8034760 1.5424690 16972.0000000
803.8479380 1.5423837 17209.0000000
803.8924000 1.5422984 16761.0000000
803.9368620 1.5422131 16998.0000000
803.9813240 1.5421278 16794.0000000
804.0257860 1.5420425 16943.0000000
804.0702480 1.5419573 16866.0000000
804.1147100 1.5418720 16954.0000000
804.1591720 1.5417868 16738.0000000
804.2036340 1.5417015 16696.0000000
804.2480960 1.5416163 16571.0000000
804.2925580 1.5415311 16480.0000000
804.3370200 1.5414459 16374.0000000
804.3814820 1.5413607 16293.0000000
804.4259440 1.5412755 16193.0000000
804.4704060 1.5411903 16312.0000000
804.5148680 1.5411051 16286.0000000
804.5593300 1.5410199 16365.0000000
804.6037920 1.5409348 16133.0000000
804.6482540 1.5408496 16004.0000000
804.6927160 1.5407645 15713.0000000
804.7371780 1.5406794 15793.0000000
804.7816400 1.5405943 16034.0000000
804.8261020 1.5405091 15817.0000000
804.8705640 1.5404240 15404.0000000
804.9150260 1.5403390 15656.0000000
804.9594880 1.5402539 15460.0000000
805.0039500 1.5401688 15450.0000000
805.0484120 1.5400837 15229.0000000
805.0928740 1.5399987 15187.0000000
805.1373360 1.5399136 15151.0000000
805.1817980 1.5398286 15073.0000000
805.2262600 1.5397436 15303.0000000
805.2707220 1.5396586 14761.0000000
805.3151840 1.5395736 14954.0000000
805.3596460 1.5394886 14904.0000000
805.4041080 1.5394036 14783.0000000
805.4485700 1.5393186 14838.0000000
805.4930320 1.5392336 14620.0000000
805.5374940 1.5391487 14628.0000000
805.5819560 1.5390637 14499.0000000
805.6264180 1.5389788 14550.0000000
805.6708800 1.5388939 14648.0000000
805.7153420 1.5388089 14567.0000000
805.7598040 1.5387240 14314.0000000
805.8042660 1.5386391 14312.0000000
805.8487280 1.5385542 14148.0000000
805.8931900 1.5384693 14285.0000000
805.9376520 1.5383845 14325.0000000
805.9821140 1.5382996 14138.0000000
806.0265760 1.5382148 14048.0000000
806.0710380 1.5381299 14306.0000000
806.1155000 1.5380451 14035.0000000
806.1599620 1.5379602 14104.0000000
806.2044240 1.5378754 14038.0000000
806.2488860 1.5377906 14135.0000000
806.2933480 1.5377058 14177.0000000
806.3378100 1.5376210 13966.0000000
806.3822720 1.5375362 13920.0000000
806.4267340 1.5374515 13712.0000000
806.4711960 1.5373667 13752.0000000
806.5156580 1.5372820 13623.0000000
806.5601200 1.5371972 13755.0000000
806.6045820 1.5371125 13753.0000000
806.6490440 1.5370278 13850.0000000
806.6935060 1.5369430 13594.0000000
806.7379680 1.5368583 13625.0000000
806.7824300 1.5367736 13738.0000000
806.8268920 1.5366890 13691.0000000
806.8713540 1.5366043 13633.0000000
806.9158160 1.5365196 13459.0000000
806.9602780 1.5364349 13656.0000000
807.0047400 1.5363503 13696.0000000
807.0492020 1.5362657 13325.0000000
807.0936640 1.5361810 13535.0000000
807.1381260 1.5360964 13537.0000000
807.1825880 1.5360118 13710.0000000
807.2270500 1.5359272 13650.0000000
807.2715120 1.5358426 13547.0000000
807.3159740 1.5357580 13476.0000000
807.3604360 1.5356734 13352.0000000
807.4048980 1.5355889 13286.0000000
807.4493600 1.5355043 13485.0000000
807.4938220 1.5354198 13310.0000000
807.5382840 1.5353352 13443.0000000
807.5827460 1.5352507 13353.0000000
807.6272080 1.5351662 13439.0000000
807.6716700 1.5350817 13361.0000000
807.7161320 1.5349972 13474.0000000
807.7605940 1.5349127 13304.0000000
807.8050560 1.5348282 13159.0000000
807.8495180 1.5347437 13304.0000000
807.8939800 1.5346593 13428.0000000
807.9384420 1.5345748 13518.0000000
807.9829040 1.5344904 13315.0000000
808.0273660 1.5344059 13279.0000000
808.0718280 1.5343215 13299.0000000
808.1162900 1.5342371 13334.0000000
808.1607520 1.5341527 13351.0000000
808.2052140 1.5340683 13243.0000000
808.2496760 1.5339839 13205.0000000
808.2941380 1.5338995 13231.0000000
808.3386000 1.5338151 13256.0000000
808.3830620 1.5337308 13329.0000000
808.4275240 1.5336464 13293.0000000
808.4719860 1.5335621 13247.0000000
808.5164480 1.5334777 13301.0000000
808.5609100 1.5333934 13417.0000000
808.6053720 1.5333091 13316.0000000
808.6498340 1.5332248 13215.0000000
808.6942960 1.5331405 13580.0000000
808.7387580 1.5330562 13445.0000000
808.7832200 1.5329719 13323.0000000
808.8276820 1.5328877 13164.0000000
808.8721440 1.5328034 13185.0000000
808.9166060 1.5327191 13423.0000000
808.9610680 1.5326349 13234.0000000
809.0055300 1.5325507 13470.0000000
809.0499920 1.5324665 13352.0000000
809.0944540 1.5323822 13489.0000000
809.1389160 1.5322980 13382.0000000
809.1833780 1.5322138 13383.0000000
809.2278400 1.5321297 13561.0000000
809.2723020 1.5320455 13563.0000000
809.3167640 1.5319613 13429.0000000
809.3612260 1.5318772 13507.0000000
809.4056880 1.5317930 13463.0000000
809.4501500 1.5317089 13597.0000000
809.4946120 1.5316247 13476.0000000
809.5390740 1.5315406 13524.0000000
809.5835360 1.5314565 13583.0000000
809.6279980 1.5313724 13537.0000000
809.6724600 1.5312883 13515.0000000
809.7169220 1.5312042 13502.0000000
809.7613840 1.5311201 13540.0000000
809.8058460 1.5310361 13789.0000000
809.8503080 1.5309520 13754.0000000
809.8947700 1.5308680 13767.0000000
809.9392320 1.5307839 13586.0000000
809.9836940 1.5306999 13647.0000000
810.0281560 1.5306159 13686.0000000
810.0726180 1.5305319 13711.0000000
810.1170800 1.5304479 13751.0000000
810.1615420 1.5303639 13626.0000000
810.2060040 1.5302799 13849.0000000
810.2504660 1.5301959 13581.0000000
810.2949280 1.5301120 13687.0000000
810.3393900 1.5300280 13469.0000000
810.3838520 1.5299441 13573.0000000
810.4283140 1.5298601 13508.0000000
810.4727760 1.5297762 13625.0000000
810.5172380 1.5296923 13658.0000000
810.5617000 1.5296084 13672.0000000
810.6061620 1.5295245 13581.0000000
810.6506240 1.5294406 13585.0000000
810.6950860 1.5293567 13808.0000000
810.7395480 1.5292728 13717.0000000
810.7840100 1.5291890 13857.0000000
810.8284720 1.5291051 13620.0000000
810.8729340 1.5290213 13901.0000000
810.9173960 1.5289374 13748.0000000
810.9618580 1.5288536 13998.0000000
811.0063200 1.5287698 13825.0000000
811.0507820 1.5286860 13902.0000000
811.0952440 1.5286022 13704.0000000
811.1397060 1.5285184 13981.0000000
811.1841680 1.5284346 13979.0000000
811.2286300 1.5283509 13862.0000000
811.2730920 1.5282671 14013.0000000
811.3175540 1.5281833 13941.0000000
811.3620160 1.5280996 13949.0000000
811.4064780 1.5280159 13996.0000000
811.4509400 1.5279321 14091.0000000
811.4954020 1.5278484 14002.0000000
811.5398640 1.5277647 13986.0000000
811.5843260 1.5276810 13948.0000000
811.6287880 1.5275973 13947.0000000
811.6732500 1.5275137 14063.0000000
811.7177120 1.5274300 13977.0000000
811.7621740 1.5273463 13736.0000000
811.8066360 1.5272627 13879.0000000
811.8510980 1.5271790 14092.0000000
811.8955600 1.5270954 13938.0000000
811.9400220 1.5270118 14136.0000000
811.9844840 1.5269282 14142.0000000
812.0289460 1.5268445 14270.0000000
812.0734080 1.5267610 13995.0000000
812.1178700 1.5266774 14160.0000000
812.1623320 1.5265938 14053.0000000
812.2067940 1.5265102 14093.0000000
812.2512560 1.5264267 14129.0000000
812.2957180 1.5263431 14320.0000000
812.3401800 1.5262596 14263.0000000
812.3846420 1.5261760 14369.0000000
812.4291040 1.5260925 14188.0000000
812.4735660 1.5260090 14356.0000000
812.5180280 1.5259255 14130.0000000
812.5624900 1.5258420 14115.0000000
812.6069520 1.5257585 14281.0000000
812.6514140 1.5256750 14131.0000000
812.6958760 1.5255916 14263.0000000
812.7403380 1.5255081 14232.0000000
812.7848000 1.5254247 14082.0000000
812.8292620 1.5253412 14124.0000000
812.8737240 1.5252578 14342.0000000
812.9181860 1.5251744 14038.0000000
812.9626480 1.5250909 14013.0000000
813.0071100 1.5250075 14111.0000000
813.0515720 1.5249241 14160.0000000
813.0960340 1.5248408 14066.0000000
813.1404960 1.5247574 14307.0000000
813.1849580 1.5246740 14421.0000000
813.2294200 1.5245906 14199.0000000
813.2738820 1.5245073 14276.0000000
813.3183440 1.5244240 14423.0000000
813.3628060 1.5243406 14238.0000000
813.4072680 1.5242573 14386.0000000
813.4517300 1.5241740 14170.0000000
813.4961920 1.5240907 14185.0000000
813.5406540 1.5240074 14237.0000000
813.5851160 1.5239241 14179.0000000
813.6295780 1.5238408 14069.0000000
813.6740400 1.5237576 14065.0000000
813.7185020 1.5236743 14331.0000000
813.7629640 1.5235911 14186.0000000
813.8074260 1.5235078 14171.0000000
813.8518880 1.5234246 14276.0000000
813.8963500 1.5233414 14284.0000000
813.9408120 1.5232581 14259.0000000
813.9852740 1.5231749 14330.0000000
814.0297360 1.5230917 14215.0000000
814.0741980 1.5230086 14406.0000000
814.1186600 1.5229254 14210.0000000
814.1631220 1.5228422 14219.0000000
814.2075840 1.5227591 14256.0000000
814.2520460 1.5226759 14078.0000000
814.2965080 1.5225928 14034.0000000
814.3409700 1.5225096 14215.0000000
814.3854320 1.5224265 14314.0000000
814.4298940 1.5223434 14262.0000000
814.4743560 1.5222603 14313.0000000
814.5188180 1.5221772 14137.0000000
814.5632800 1.5220941 14296.0000000
814.6077420 1.5220110 14327.0000000
814.6522040 1.5219280 14372.0000000
814.6966660 1.5218449 14377.0000000
814.7411280 1.5217619 14219.0000000
814.7855900 1.5216788 14329.0000000
814.8300520 1.5215958 14350.0000000
814.8745140 1.5215128 14098.0000000
814.9189760 1.5214297 14228.0000000
814.9634380 1.5213467 14204.0000000
815.0079000 1.5212637 14286.0000000
815.0523620 1.5211808 14484.0000000
815.0968240 1.5210978 14277.0000000
815.1412860 1.5210148 14180.0000000
815.1857480 1.5209319 14426.0000000
815.2302100 1.5208489 14278.0000000
815.2746720 1.5207660 14516.0000000
815.3191340 1.5206830 14276.0000000
815.3635960 1.5206001 14356.0000000
815.4080580 1.5205172 14497.0000000
815.4525200 1.5204343 14220.0000000
815.4969820 1.5203514 14395.0000000
815.5414440 1.5202685 14294.0000000
815.5859060 1.5201856 14412.0000000
815.6303680 1.5201028 14234.0000000
815.6748300 1.5200199 14411.0000000
815.7192920 1.5199370 14294.0000000
815.7637540 1.5198542 14424.0000000
815.8082160 1.5197714 14416.0000000
815.8526780 1.5196885 14243.0000000
815.8971400 1.5196057 14260.0000000
815.9416020 1.5195229 14446.0000000
815.9860640 1.5194401 14300.0000000
816.0305260 1.5193573 14366.0000000
816.0749880 1.5192746 14251.0000000
816.1194500 1.5191918 14320.0000000
816.1639120 1.5191090 14327.0000000
816.2083740 1.5190263 14382.0000000
816.2528360 1.5189435 14145.0000000
816.2972980 1.5188608 14215.0000000
816.3417600 1.5187781 14411.0000000
816.3862220 1.5186954 14118.0000000
816.4306840 1.5186127 14336.0000000
816.4751460 1.5185300 14174.0000000
816.5196080 1.5184473 14256.0000000
816.5640700 1.5183646 14067.0000000
816.6085320 1.5182819 14282.0000000
816.6529940 1.5181993 14246.0000000
816.6974560 1.5181166 14207.0000000
816.7419180 1.5180340 14214.0000000
816.7863800 1.5179513 14192.0000000
816.8308420 1.5178687 14222.0000000
816.8753040 1.5177861 14001.0000000
816.9197660 1.5177035 14143.0000000
816.9642280 1.5176209 14218.0000000
817.0086900 1.5175383 14142.0000000
817.0531520 1.5174557 14204.0000000
817.0976140 1.5173731 14215.0000000
817.1420760 1.5172906 14063.0000000
817.1865380 1.5172080 14118.0000000
817.2310000 1.5171255 14363.0000000
817.2754620 1.5170429 13996.0000000
817.3199240 1.5169604 14095.0000000
817.3643860 1.5168779 14208.0000000
817.4088480 1.5167954 14150.0000000
817.4533100 1.5167129 14124.0000000
817.4977720 1.5166304 13955.0000000
817.5422340 1.5165479 14074.0000000
817.5866960 1.5164654 14281.0000000
817.6311580 1.5163830 14156.0000000
817.6756200 1.5163005 13939.0000000
817.7200820 1.5162181 14118.0000000
817.7645440 1.5161356 14091.0000000
817.8090060 1.5160532 14230.0000000
817.8534680 1.5159708 13940.0000000
817.8979300 1.5158884 13903.0000000
817.9423920 1.5158060 13988.0000000
817.9868540 1.5157236 14060.0000000
818.0313160 1.5156412 14056.0000000
818.0757780 1.5155588 14050.0000000
818.1202400 1.5154765 14035.0000000
818.1647020 1.5153941 13783.0000000
818.2091640 1.5153118 14184.0000000
818.2536260 1.5152294 14063.0000000
818.2980880 1.5151471 13943.0000000
818.3425500 1.5150648 14028.0000000
818.3870120 1.5149825 13992.0000000
818.4314740 1.5149002 13829.0000000
818.4759360 1.5148179 13895.0000000
818.5203980 1.5147356 13937.0000000
818.5648600 1.5146533 13895.0000000
818.6093220 1.5145710 13774.0000000
818.6537840 1.5144888 13693.0000000
818.6982460 1.5144065 13741.0000000
818.7427080 1.5143243 13902.0000000
818.7871700 1.5142421 13876.0000000
818.8316320 1.5141598 13986.0000000
818.8760940 1.5140776 13726.0000000
818.9205560 1.5139954 13841.0000000
818.9650180 1.5139132 13790.0000000
819.0094800 1.5138310 13740.0000000
819.0539420 1.5137489 13646.0000000
819.0984040 1.5136667 13664.0000000
819.1428660 1.5135845 13602.0000000
819.1873280 1.5135024 13498.0000000
819.2317900 1.5134202 13580.0000000
819.2762520 1.5133381 13602.0000000
819.3207140 1.5132560 13741.0000000
819.3651760 1.5131739 13889.0000000
819.4096380 1.5130918 13695.0000000
819.4541000 1.5130097 13584.0000000
819.4985620 1.5129276 13805.0000000
819.5430240 1.5128455 13504.0000000
819.5874860 1.5127634 13636.0000000
819.6319480 1.5126814 13375.0000000
819.6764100 1.5125993 13428.0000000
819.7208720 1.5125173 13429.0000000
819.7653340 1.5124352 13504.0000000
819.8097960 1.5123532 13410.0000000
819.8542580 1.5122712 13268.0000000
819.8987200 1.5121892 13248.0000000
819.9431820 1.5121072 13292.0000000
819.9876440 1.5120252 13409.0000000
820.0321060 1.5119432 13389.0000000
820.0765680 1.5118612 13144.0000000
820.1210300 1.5117793 13136.0000000
820.1654920 1.5116973 13224.0000000
820.2099540 1.5116154 13247.0000000
820.2544160 1.5115334 13365.0000000
820.2988780 1.5114515 13401.0000000
820.3433400 1.5113696 13329.0000000
820.3878020 1.5112877 13162.0000000
820.4322640 1.5112058 12964.0000000
820.4767260 1.5111239 13104.0000000
820.5211880 1.5110420 13084.0000000
820.5656500 1.5109601 13185.0000000
820.6101120 1.5108783 13222.0000000
820.6545740 1.5107964 12891.0000000
820.6990360 1.5107145 13189.0000000
820.7434980 1.5106327 13183.0000000
820.7879600 1.5105509 13016.0000000
820.8324220 1.5104691 13197.0000000
820.8768840 1.5103872 12977.0000000
820.9213460 1.5103054 12847.0000000
820.9658080 1.5102236 12992.0000000
821.0102700 1.5101419 12896.0000000
821.0547320 1.5100601 12779.0000000
821.0991940 1.5099783 12781.0000000
821.1436560 1.5098965 12999.0000000
821.1881180 1.5098148 12989.0000000
821.2325800 1.5097331 12878.0000000
821.2770420 1.5096513 12859.0000000
821.3215040 1.5095696 12876.0000000
821.3659660 1.5094879 12721.0000000
821.4104280 1.5094062 12775.0000000
821.4548900 1.5093245 12831.0000000
821.4993520 1.5092428 12633.0000000
821.5438140 1.5091611 12700.0000000
821.5882760 1.5090794 12760.0000000
821.6327380 1.5089978 12668.0000000
821.6772000 1.5089161 12698.0000000
821.7216620 1.5088345 12602.0000000
821.7661240 1.5087528 12040.0000000
821.8105860 1.5086712 11806.0000000
821.8550480 1.5085896 12488.0000000
821.8995100 1.5085080 12590.0000000
821.9439720 1.5084264 12466.0000000
821.9884340 1.5083448 12364.0000000
822.0328960 1.5082632 12276.0000000
822.0773580 1.5081816 12286.0000000
822.1218200 1.5081001 12330.0000000
822.1662820 1.5080185 12355.0000000
822.2107440 1.5079370 12567.0000000
822.2552060 1.5078554 12171.0000000
822.2996680 1.5077739 12227.0000000
822.3441300 1.5076924 12431.0000000
822.3885920 1.5076109 12340.0000000
822.4330540 1.5075294 12228.0000000
822.4775160 1.5074479 12110.0000000
822.5219780 1.5073664 12356.0000000
822.5664400 1.5072849 11894.0000000
822.6109020 1.5072034 12107.0000000
822.6553640 1.5071220 12292.0000000
822.6998260 1.5070405 12180.0000000
822.7442880 1.5069591 12084.0000000
822.7887500 1.5068776 11969.0000000
822.8332120 1.5067962 12150.0000000
822.8776740 1.5067148 12053.0000000
822.9221360 1.5066334 11963.0000000
822.9665980 1.5065520 12257.0000000
823.0110600 1.5064706 11913.0000000
823.0555220 1.5063892 11812.0000000
823.0999840 1.5063079 12161.0000000
823.1444460 1.5062265 11987.0000000
823.1889080 1.5061451 11990.0000000
823.2333700 1.5060638 12049.0000000
823.2778320 1.5059825 11810.0000000
823.3222940 1.5059011 12017.0000000
823.3667560 1.5058198 12066.0000000
823.4112180 1.5057385 12022.0000000
823.4556800 1.5056572 11999.0000000
823.5001420 1.5055759 11797.0000000
823.5446040 1.5054946 11924.0000000
823.5890660 1.5054133 11948.0000000
823.6335280 1.5053321 11887.0000000
823.6779900 1.5052508 11946.0000000
823.7224520 1.5051696 11709.0000000
823.7669140 1.5050883 11654.0000000
823.8113760 1.5050071 11964.0000000
823.8558380 1.5049259 11639.0000000
823.9003000 1.5048447 11984.0000000
823.9447620 1.5047635 11757.0000000
823.9892240 1.5046823 11926.0000000
824.0336860 1.5046011 11682.0000000
824.0781480 1.5045199 11744.0000000
824.1226100 1.5044387 11771.0000000
824.1670720 1.5043576 11791.0000000
824.2115340 1.5042764 11692.0000000
824.2559960 1.5041953 11654.0000000
824.3004580 1.5041141 11636.0000000
824.3449200 1.5040330 11563.0000000
824.3893820 1.5039519 11529.0000000
824.4338440 1.5038708 11535.0000000
824.4783060 1.5037897 11657.0000000
824.5227680 1.5037086 11385.0000000
824.5672300 1.5036275 11551.0000000
824.6116920 1.5035464 11381.0000000
824.6561540 1.5034654 11679.0000000
824.7006160 1.5033843 11414.0000000
824.4000000 1.5595496 11411.0000000
